id,t,dt,ax,ay,az,gx,gy,gz,mx,my,mz
-1,119,119,119.0,119.0,119.0,119.0,20.0,20.0,20.0,-6:46:18,04 12 2021
0,12382,4,94.6,-583.5,793.58,26.25,14.65,17.09,-0.16,24.77,-12.74
1,12401,4,-26.0,-990.72,164.67,85.45,15.26,-2.44,34.83,40.52,-3.97
2,12412,6,-87.4,-997.92,73.97,22.58,-10.38,4.27,26.93,36.18,2.36
3,12425,0,0.0,,,,,,,,
4,12426,1,0.0,,,,,,,,
5,12428,0,0.0,,,,,,,,
6,12430,0,0.0,,,,,,,,
0,12433,5,95.34,-586.3,790.04,20.14,11.6,15.87,-0.27,25.33,-12.68
1,12445,4,-26.61,-995.61,164.06,94.6,15.26,1.83,34.78,40.25,-4.42
2,12457,5,-73.61,-1000.12,67.63,31.74,-7.32,6.71,27.05,35.73,1.14
3,12474,0,0.0,,,,,,,,
4,12476,0,0.0,,,,,,,,
5,12477,1,0.0,,,,,,,,
6,12479,0,0.0,,,,,,,,
0,12483,4,91.8,-585.45,791.99,11.6,-6.1,-1.22,-0.22,24.16,-12.57
1,12494,5,-19.65,-996.46,164.31,92.77,17.7,15.26,35.01,40.22,-4.58
2,12507,4,-77.76,-1000.49,69.46,34.79,-54.93,4.88,27.09,35.82,1.29
3,12518,0,0.0,,,,,,,,
4,12520,0,0.0,,,,,,,,
5,12522,0,0.0,,,,,,,,
6,12523,0,0.0,,,,,,,,
0,12527,4,96.07,-586.3,793.82,7.93,-13.43,-6.71,-0.63,24.39,-13.15
1,12542,6,-15.26,-992.68,165.53,91.55,19.53,21.36,35.05,40.17,-3.96
2,12555,4,-77.39,-1000.98,67.99,35.4,-73.85,5.49,26.73,35.73,1.55
3,12566,1,0.0,,,,,,,,
4,12568,0,0.0,,,,,,,,
5,12570,0,0.0,,,,,,,,
6,12571,0,0.0,,,,,,,,
0,12575,4,81.91,-579.83,797.36,8.54,-8.54,-0.61,-0.18,24.50,-13.46
1,12587,5,-12.94,-997.19,163.57,90.94,18.31,17.7,34.61,39.76,-4.19
2,12599,5,-73.61,-1010.62,67.5,27.47,-45.17,4.27,27.6,35.64,2.34
3,12611,0,0.0,,,,,,,,
4,12612,0,0.0,,,,,,,,
5,12618,0,0.0,,,,,,,,
6,12619,0,0.0,,,,,,,,
0,12623,4,80.32,-581.67,794.56,17.09,3.05,7.93,-0.13,24.40,-12.54
1,12635,5,-14.65,-990.36,167.6,87.89,14.04,4.27,34.44,40.19,-4.41
2,12647,4,-77.88,-1000.49,62.74,29.3,-26.25,-0.61,27.78,35.46,-0.37
3,12659,0,0.0,,,,,,,,
4,12660,0,0.0,,,,,,,,
5,12662,0,0.0,,,,,,,,
6,12663,1,0.0,,,,,,,,
0,12667,5,79.35,-577.39,800.42,25.02,13.43,17.7,-0.61,24.80,-12.29
1,12680,3,-13.43,-995.73,164.67,88.5,12.82,-2.44,34.44,40.19,-4.41
2,12694,5,-82.4,-1000.49,72.02,26.86,-4.27,-5.49,27.4,35.75,0.96
3,12706,0,0.0,,,,,,,,
4,12707,0,0.0,,,,,,,,
5,12709,0,0.0,,,,,,,,
6,12710,1,0.0,,,,,,,,
0,12715,3,78.49,-583.98,795.78,26.25,16.48,21.97,-0.61,24.80,-12.29
1,12726,4,-11.11,-987.67,168.33,93.99,11.6,-4.88,35.16,40.26,-3.67
2,12737,5,-69.46,-1000.61,71.29,37.23,-3.66,-13.43,27.33,35.39,0.83
3,12749,0,0.0,,,,,,,,
4,12750,0,0.0,,,,,,,,
5,12752,0,0.0,,,,,,,,
6,12754,0,0.0,,,,,,,,
0,12758,4,82.52,-582.64,795.17,25.02,26.25,30.52,-0.31,24.30,-12.60
1,12774,4,-17.09,-991.82,165.65,102.54,10.99,-12.21,34.95,40.12,-2.59
2,12786,4,-78.37,-996.95,61.52,48.83,-1.83,-20.75,27.0,35.63,0.96
3,12797,0,0.0,,,,,,,,
4,12800,0,0.0,,,,,,,,
5,12801,0,0.0,,,,,,,,
6,12803,0,0.0,,,,,,,,
0,12806,5,86.3,-581.3,797.12,28.08,25.63,31.13,-0.95,24.12,-12.00
1,12818,4,-13.67,-985.84,166.87,83.62,10.38,-9.16,35.06,40.76,-3.61
2,12830,4,-81.91,-1000.49,66.89,48.83,12.21,-21.36,27.31,35.63,0.95
3,12846,0,0.0,,,,,,,,
4,12848,0,0.0,,,,,,,,
5,12849,0,0.0,,,,,,,,
6,12851,0,0.0,,,,,,,,
0,12854,5,85.69,-581.42,795.9,28.69,34.18,40.28,-0.22,24.78,-13.00
1,12866,4,-17.33,-994.38,164.43,90.94,7.93,-20.14,34.74,40.21,-3.98
2,12878,4,-79.96,-997.68,62.74,52.49,6.71,-28.69,27.39,35.99,2.32
3,12890,0,0.0,,,,,,,,
4,12892,0,0.0,,,,,,,,
5,12893,0,0.0,,,,,,,,
6,12895,0,0.0,,,,,,,,
0,12898,5,92.16,-584.59,791.26,26.25,35.4,39.06,-0.21,24.24,-12.71
1,12914,4,-23.44,-997.92,163.94,96.44,9.16,-15.26,34.97,40.27,-3.02
2,12926,4,-101.81,-1003.3,52.37,57.98,-0.61,-31.13,27.39,35.99,2.32
3,12937,0,0.0,,,,,,,,
4,12939,0,0.0,,,,,,,,
5,12940,0,0.0,,,,,,,,
6,12942,0,0.0,,,,,,,,
0,12945,5,90.94,-584.23,793.95,27.47,32.96,36.01,-0.55,24.44,-12.49
1,12957,4,-21.24,-987.79,166.26,93.38,10.99,-12.21,34.85,40.42,-4.21
2,12969,5,-86.3,-1001.59,57.98,56.15,20.75,-32.96,27.47,35.84,1.77
3,12981,0,0.0,,,,,,,,
4,12983,0,0.0,,,,,,,,
5,12988,1,0.0,,,,,,,,
6,12990,0,0.0,,,,,,,,
0,12994,4,95.09,-582.89,792.48,27.47,34.18,38.45,-0.37,24.12,-12.61
1,13005,5,-21.61,-993.53,162.6,100.71,10.99,-14.04,34.58,39.99,-3.63
2,13018,4,-87.77,-998.41,49.32,57.37,10.38,-32.96,26.6,35.56,1.76
3,13029,1,0.0,,,,,,,,
4,13031,0,0.0,,,,,,,,
5,13033,0,0.0,,,,,,,,
6,13034,0,0.0,,,,,,,,
0,13038,4,96.8,-581.3,794.19,28.08,34.18,43.33,0.35,24.34,-12.56
1,13049,5,-22.58,-993.9,162.23,98.88,11.6,-18.92,35.44,39.94,-3.61
2,13066,4,-94.24,-1000.85,43.95,63.48,0.0,-35.4,26.86,36.23,1.88
3,13077,0,0.0,,,,,,,,
4,13079,0,0.0,,,,,,,,
5,13081,0,0.0,,,,,,,,
6,13082,0,0.0,,,,,,,,
0,13086,4,102.66,-584.35,790.16,28.69,34.79,43.95,-0.21,24.91,-12.78
1,13099,4,-26.12,-990.72,161.74,92.77,9.77,-17.09,35.23,40.84,-4.39
2,13110,5,-107.06,-1000.49,41.38,65.31,-20.75,-39.06,26.15,36.05,2.75
3,13122,0,0.0,,,,,,,,
4,13123,0,0.0,,,,,,,,
5,13125,0,0.0,,,,,,,,
6,13127,0,0.0,,,,,,,,
0,13134,4,101.2,-583.13,790.77,33.57,37.84,42.11,-0.33,24.28,-12.21
1,13147,4,-27.34,-994.38,162.6,98.27,12.21,-15.26,34.95,40.52,-3.97
2,13158,5,-127.2,-986.82,38.21,68.36,11.6,-39.06,26.28,35.83,2.83
3,13170,0,0.0,,,,,,,,
4,13171,1,0.0,,,,,,,,
5,13173,0,0.0,,,,,,,,
6,13175,0,0.0,,,,,,,,
0,13178,6,114.87,-583.86,788.33,36.62,33.57,37.84,-0.51,24.79,-12.19
1,13191,4,-35.4,-997.8,159.79,85.45,17.09,-11.6,34.45,40.32,-3.43
2,13203,4,-126.95,-1000.24,32.96,61.04,-45.17,-36.01,26.22,36.07,2.60
3,13218,0,0.0,,,,,,,,
4,13220,0,0.0,,,,,,,,
5,13221,0,0.0,,,,,,,,
6,13223,0,0.0,,,,,,,,
0,13227,5,103.27,-584.11,787.48,23.8,7.93,15.26,-0.37,24.34,-12.73
1,13239,3,-23.32,-996.46,159.3,86.06,16.48,6.71,34.45,40.32,-3.43
2,13250,4,-127.08,-1003.42,21.12,38.45,-47.61,-28.08,25.89,35.79,3.33
3,13261,0,0.0,,,,,,,,
4,13263,0,0.0,,,,,,,,
5,13264,1,0.0,,,,,,,,
6,13266,0,0.0,,,,,,,,
0,13271,4,108.4,-585.33,790.77,18.31,7.93,9.16,-0.43,24.66,-13.67
1,13286,4,-25.27,-1000.61,161.38,70.19,21.36,7.93,35.18,39.89,-4.19
2,13298,4,-138.18,-1008.3,11.35,1.83,-64.7,-20.14,25.84,36.05,2.82
3,13309,0,0.0,,,,,,,,
4,13312,0,0.0,,,,,,,,
5,13314,0,0.0,,,,,,,,
6,13315,0,0.0,,,,,,,,
0,13319,4,100.71,-586.67,790.65,24.41,4.88,1.22,-0.56,25.42,-12.19
1,13330,5,-22.58,-971.92,171.14,65.92,22.58,12.21,34.94,40.16,-2.75
2,13342,4,-119.26,-993.41,33.2,-16.48,-29.3,-10.99,26.59,36.25,2.14
3,13353,2,0.0,,,,,,,,
4,13360,0,0.0,,,,,,,,
5,13362,0,0.0,,,,,,,,
6,13363,0,0.0,,,,,,,,
0,13367,4,106.08,-582.4,793.21,26.25,3.05,1.83,-0.37,24.54,-12.43
1,13378,5,-26.98,-1002.08,165.41,78.12,21.97,15.87,35.05,40.10,-3.88
2,13390,5,-119.63,-999.15,44.19,-23.19,-18.31,-1.22,25.93,36.06,2.78
3,13403,0,0.0,,,,,,,,
4,13404,0,0.0,,,,,,,,
5,13406,0,0.0,,,,,,,,
6,13408,0,0.0,,,,,,,,
0,13411,4,91.67,-587.89,793.33,25.63,6.71,2.44,-0.94,24.65,-12.92
1,13423,4,-13.55,-989.26,169.19,75.07,19.53,16.48,35.02,40.14,-3.08
2,13438,6,-110.11,-992.31,54.81,-10.38,4.27,-7.93,25.56,36.21,1.71
3,13451,0,0.0,,,,,,,,
4,13452,0,0.0,,,,,,,,
5,13454,0,0.0,,,,,,,,
6,13456,0,0.0,,,,,,,,
0,13459,4,91.92,-589.23,790.89,26.86,14.65,16.48,-0.94,25.62,-12.89
1,13471,4,-16.85,-987.18,171.26,86.06,17.09,0.61,35.25,40.01,-2.94
2,13483,4,-122.68,-996.22,49.44,13.43,-14.65,-9.16,25.56,36.21,1.71
3,13494,0,0.0,,,,,,,,
4,13495,0,0.0,,,,,,,,
5,13497,0,0.0,,,,,,,,
6,13499,0,0.0,,,,,,,,
0,13506,4,96.07,-589.48,790.16,26.25,19.53,21.97,-0.67,24.90,-12.10
1,13518,4,-23.44,-989.14,172.24,90.94,15.26,-3.66,34.66,40.61,-3.63
2,13530,5,-129.39,-1000.61,46.26,26.25,0.0,-11.6,25.35,36.33,2.25
3,13542,0,0.0,,,,,,,,
4,13543,0,0.0,,,,,,,,
5,13545,0,0.0,,,,,,,,
6,13547,0,0.0,,,,,,,,
0,13550,3,102.42,-589.97,788.33,24.41,17.7,21.36,-0.67,24.90,-12.10
1,13561,4,-21.24,-993.65,167.48,89.72,14.04,0.61,35.01,39.92,-2.69
2,13573,5,-123.05,-998.41,44.56,21.36,-5.49,-6.71,26.12,35.82,2.31
3,13589,0,0.0,,,,,,,,
4,13590,0,0.0,,,,,,,,
5,13592,0,0.0,,,,,,,,
6,13594,0,0.0,,,,,,,,
0,13597,4,96.31,-587.52,790.41,21.36,14.04,20.75,-0.67,25.10,-12.65
1,13609,5,-23.68,-985.84,170.29,88.5,14.04,-3.66,35.49,40.28,-3.61
2,13621,5,-125.61,-994.75,46.39,19.53,10.38,-4.88,25.87,36.12,1.46
3,13633,0,0.0,,,,,,,,
4,13634,1,0.0,,,,,,,,
5,13636,0,0.0,,,,,,,,
6,13638,0,0.0,,,,,,,,
0,13641,5,101.2,-590.82,788.7,22.58,14.65,21.36,-0.63,24.95,-13.07
1,13658,4,-17.94,-989.14,169.43,89.11,10.99,0.0,35.1,40.59,-2.82
2,13669,5,-130.0,-998.78,49.07,23.8,-4.88,-5.49,26.28,35.91,1.95
3,13681,0,0.0,,,,,,,,
4,13682,1,0.0,,,,,,,,
5,13684,0,0.0,,,,,,,,
6,13686,0,0.0,,,,,,,,
0,13689,5,96.56,-588.5,788.82,17.7,13.43,19.53,-0.17,25.00,-11.60
1,13702,4,-19.9,-989.75,170.41,95.21,13.43,0.61,34.72,40.30,-3.43
2,13714,4,-116.33,-998.05,49.93,26.86,17.09,-4.27,25.93,36.08,1.98
3,13725,0,0.0,,,,,,,,
4,13730,0,0.0,,,,,,,,
5,13732,0,0.0,,,,,,,,
6,13734,0,0.0,,,,,,,,
0,13737,5,96.07,-586.18,790.89,23.19,17.09,25.63,0.16,24.40,-13.10
1,13750,4,-19.41,-991.94,168.82,90.94,10.38,-10.99,34.7,40.84,-3.33
2,13762,4,-133.91,-998.9,44.07,28.08,-11.6,-8.54,25.6,35.95,1.61
3,13773,0,0.0,,,,,,,,
4,13775,0,0.0,,,,,,,,
5,13776,0,0.0,,,,,,,,
6,13778,0,0.0,,,,,,,,
0,13782,5,96.44,-587.28,791.5,21.97,19.53,27.47,0.34,24.91,-13.29
1,13794,3,-25.51,-995.36,167.97,92.77,10.99,-9.77,34.7,40.84,-3.33
2,13809,4,-135.99,-1000.49,41.99,26.25,-3.05,-4.27,26.32,35.78,1.44
3,13820,0,0.0,,,,,,,,
4,13822,0,0.0,,,,,,,,
5,13824,0,0.0,,,,,,,,
6,13826,0,0.0,,,,,,,,
0,13829,5,96.68,-590.82,787.72,23.8,20.14,21.97,-0.26,24.50,-12.78
1,13841,4,-20.87,-988.28,170.04,91.55,13.43,-4.27,35.11,40.81,-3.59
2,13853,4,-127.08,-999.27,46.14,30.52,-1.83,-7.93,25.84,35.73,1.46
3,13864,0,0.0,,,,,,,,
4,13867,0,0.0,,,,,,,,
5,13868,1,0.0,,,,,,,,
6,13870,0,0.0,,,,,,,,
0,13877,5,98.39,-587.65,789.31,21.97,18.31,24.41,-0.4,24.56,-12.48
1,13889,4,-20.14,-986.82,169.8,93.99,10.99,-4.27,34.99,40.76,-3.03
2,13901,4,-132.08,-989.62,55.18,33.57,1.83,-6.1,25.6,36.11,1.38
3,13913,0,0.0,,,,,,,,
4,13915,0,0.0,,,,,,,,
5,13916,1,0.0,,,,,,,,
6,13918,0,0.0,,,,,,,,
0,13921,5,100.34,-587.65,790.16,20.75,18.31,23.19,-0.24,24.32,-13.33
1,13933,5,-20.14,-995.0,168.82,102.54,12.21,-1.83,35.6,40.38,-3.76
2,13945,4,-131.59,-1003.17,31.86,44.56,-3.66,-6.71,25.29,36.18,1.61
3,13961,0,0.0,,,,,,,,
4,13963,0,0.0,,,,,,,,
5,13965,0,0.0,,,,,,,,
6,13966,0,0.0,,,,,,,,
0,13970,4,101.93,-585.57,786.87,18.92,22.58,23.19,0.28,24.54,-13.07
1,13981,5,-24.29,-995.61,167.24,94.6,14.04,-5.49,34.52,40.48,-3.02
2,13993,6,-150.76,-1005.49,26.86,27.47,-24.41,-0.61,26.04,36.39,2.11
3,14006,0,0.0,,,,,,,,
4,14007,0,0.0,,,,,,,,
5,14009,0,0.0,,,,,,,,
6,14011,0,0.0,,,,,,,,
0,14014,4,108.28,-587.89,787.6,20.14,15.87,15.26,-0.45,24.96,-12.12
1,14030,4,-23.56,-991.33,168.46,77.51,16.48,6.71,35.22,40.47,-4.03
2,14042,5,-132.93,-1000.49,36.74,-0.61,-4.27,14.65,25.59,36.17,1.43
3,14054,0,0.0,,,,,,,,
4,14055,0,0.0,,,,,,,,
5,14057,0,0.0,,,,,,,,
6,14059,0,0.0,,,,,,,,
0,14062,4,101.32,-586.18,790.04,17.09,9.16,9.77,-0.67,24.76,-12.73
1,14074,4,-23.32,-996.83,168.82,75.07,17.09,6.71,34.78,40.44,-3.58
2,14086,4,-128.42,-998.9,54.08,-1.22,1.83,17.09,25.59,36.17,1.43
3,14100,1,0.0,,,,,,,,
4,14102,0,0.0,,,,,,,,
5,14104,0,0.0,,,,,,,,
6,14105,1,0.0,,,,,,,,
0,14109,4,96.68,-589.23,790.53,23.8,14.65,14.04,-0.49,24.91,-12.52
1,14121,5,-20.26,-992.43,170.17,91.55,15.26,0.0,35.14,40.31,-4.26
2,14133,5,-131.59,-993.41,53.83,13.43,-7.32,12.21,25.72,36.22,2.22
3,14145,0,0.0,,,,,,,,
4,14146,0,0.0,,,,,,,,
5,14148,0,0.0,,,,,,,,
6,14150,0,0.0,,,,,,,,
0,14153,4,98.75,-588.5,790.89,20.14,14.65,13.43,-0.26,24.84,-12.74
1,14166,4,-21.48,-992.92,170.17,92.16,15.87,3.05,34.77,40.88,-4.02
2,14181,5,-130.13,-1000.37,48.22,23.19,-10.99,9.16,25.62,35.62,1.32
3,14193,0,0.0,,,,,,,,
4,14194,0,0.0,,,,,,,,
5,14196,0,0.0,,,,,,,,
6,14198,0,0.0,,,,,,,,
0,14201,4,95.95,-587.89,791.26,21.97,14.04,12.82,-1.43,25.06,-12.34
1,14214,4,-15.99,-992.68,170.53,89.11,15.26,4.88,34.9,40.61,-3.32
2,14225,5,-123.66,-999.15,46.75,25.02,-7.93,9.77,25.67,36.01,1.98
3,14237,0,0.0,,,,,,,,
4,14238,0,0.0,,,,,,,,
5,14240,0,0.0,,,,,,,,
6,14242,0,0.0,,,,,,,,
0,14249,5,99.49,-588.26,790.65,21.97,18.92,15.87,-0.79,25.29,-12.82
1,14262,4,-27.22,-994.51,171.14,89.72,15.87,-1.83,34.44,39.97,-3.34
2,14273,5,-141.72,-1004.52,45.53,21.97,-7.32,11.6,26.1,35.90,1.38
3,14285,0,0.0,,,,,,,,
4,14286,1,0.0,,,,,,,,
5,14288,0,0.0,,,,,,,,
6,14290,0,0.0,,,,,,,,
0,14294,5,100.95,-585.82,789.92,22.58,15.26,12.21,-1.45,25.48,-12.40
1,14306,4,-17.94,-989.87,170.65,83.01,15.87,6.71,35.12,40.56,-2.92
2,14318,4,-118.41,-999.76,51.15,19.53,5.49,12.82,26.33,36.11,2.40
3,14333,0,0.0,,,,,,,,
4,14334,2,0.0,,,,,,,,
5,14337,0,0.0,,,,,,,,
6,14339,0,0.0,,,,,,,,
0,14342,5,99.12,-589.48,788.45,26.25,16.48,15.26,-0.9,25.87,-11.98
1,14354,3,-19.29,-990.23,170.9,90.33,11.6,-0.61,35.12,40.56,-2.92
2,14365,4,-126.22,-999.51,45.78,20.75,-5.49,10.99,26.56,35.99,1.46
3,14376,0,0.0,,,,,,,,
4,14379,0,0.0,,,,,,,,
5,14380,0,0.0,,,,,,,,
6,14382,0,0.0,,,,,,,,
0,14385,4,95.58,-587.28,792.97,23.19,14.04,15.87,-0.9,25.87,-11.98
1,14400,4,-17.94,-989.26,171.63,86.06,14.04,-2.44,35.08,39.78,-3.47
2,14412,4,-128.91,-996.09,57.13,16.48,-9.16,10.38,25.98,36.33,1.28
3,14424,0,0.0,,,,,,,,
4,14426,0,0.0,,,,,,,,
5,14427,0,0.0,,,,,,,,
6,14429,0,0.0,,,,,,,,
0,14432,5,99.0,-586.91,790.28,23.19,14.04,17.7,-1.26,25.40,-12.62
1,14444,4,-20.75,-994.51,171.63,89.11,10.99,-4.27,35.02,40.28,-4.03
2,14456,4,-126.22,-1001.59,42.48,17.7,-8.54,14.04,26.11,36.02,1.57
3,14468,0,0.0,,,,,,,,
4,14474,0,0.0,,,,,,,,
5,14475,0,0.0,,,,,,,,
6,14477,0,0.0,,,,,,,,
0,14480,5,98.88,-586.67,790.28,24.41,15.26,17.09,-0.82,25.04,-12.54
1,14492,4,-17.21,-993.04,171.88,81.18,12.21,-1.83,35.39,39.92,-3.50
2,14504,5,-123.54,-999.63,56.4,7.93,4.27,15.26,25.84,36.35,1.25
3,14516,0,0.0,,,,,,,,
4,14518,0,0.0,,,,,,,,
5,14519,0,0.0,,,,,,,,
6,14521,0,0.0,,,,,,,,
0,14524,5,96.31,-588.13,789.06,23.19,16.48,17.7,-1.17,25.84,-12.90
1,14536,5,-22.83,-994.02,172.0,84.84,13.43,-3.05,34.83,40.06,-3.53
2,14553,4,-125.85,-1001.34,51.64,3.66,0.0,17.09,26.38,36.36,1.46
3,14564,0,0.0,,,,,,,,
4,14566,0,0.0,,,,,,,,
5,14567,0,0.0,,,,,,,,
6,14569,0,0.0,,,,,,,,
0,14572,5,98.02,-590.45,788.45,26.25,14.04,12.82,-0.96,25.10,-13.18
1,14584,4,-15.75,-991.21,173.22,84.84,12.21,1.22,35.13,40.34,-3.81
2,14597,4,-124.27,-998.78,53.22,4.27,6.1,14.65,25.51,35.95,0.96
3,14608,0,0.0,,,,,,,,
4,14610,0,0.0,,,,,,,,
5,14611,0,0.0,,,,,,,,
6,14613,0,0.0,,,,,,,,
0,14620,5,99.61,-588.87,786.13,26.25,12.21,12.82,-1.0,24.73,-13.16
1,14632,5,-21.61,-989.99,173.58,86.06,12.21,1.83,34.99,40.30,-3.63
2,14645,3,-126.1,-1000.37,61.65,6.1,4.88,14.04,25.51,35.95,0.96
3,14655,0,0.0,,,,,,,,
4,14657,0,0.0,,,,,,,,
5,14658,0,0.0,,,,,,,,
6,14660,0,0.0,,,,,,,,
0,14663,5,93.38,-590.7,790.16,26.86,14.04,10.38,-0.81,25.37,-11.90
1,14675,5,-17.58,-995.12,173.58,87.89,14.04,3.05,35.29,40.33,-3.85
2,14688,4,-112.92,-1000.49,67.87,17.7,14.65,9.16,26.0,35.82,1.57
3,14711,0,0.0,,,,,,,,
4,14712,1,0.0,,,,,,,,
5,14714,0,0.0,,,,,,,,
6,14716,0,0.0,,,,,,,,
0,14720,5,98.75,-588.5,788.82,28.08,16.48,15.26,-1.28,25.45,-13.57
1,14732,4,-22.71,-995.24,173.1,85.45,15.87,5.49,34.85,40.49,-4.30
2,14744,4,-118.77,-1000.37,62.38,20.75,13.43,8.54,26.07,36.34,2.10
3,14755,0,0.0,,,,,,,,
4,14757,0,0.0,,,,,,,,
5,14758,0,0.0,,,,,,,,
6,14760,0,0.0,,,,,,,,
0,14764,5,91.31,-591.92,787.48,31.74,18.31,18.92,-0.98,25.27,-13.02
1,14780,5,-17.21,-992.92,173.34,94.6,10.99,-4.27,34.66,39.84,-4.66
2,14792,4,-122.92,-1000.61,62.62,26.25,20.75,12.21,25.89,35.96,1.65
3,14803,0,0.0,,,,,,,,
4,14806,0,0.0,,,,,,,,
5,14808,0,0.0,,,,,,,,
6,14809,0,0.0,,,,,,,,
0,14813,4,94.73,-592.29,789.67,34.18,18.31,22.58,-0.96,25.56,-11.80
1,14824,5,-23.44,-991.33,173.83,93.38,10.38,-1.22,34.8,40.78,-4.66
2,14836,5,-117.55,-997.31,67.75,28.08,11.6,6.1,25.42,36.30,1.22
3,14848,1,0.0,,,,,,,,
4,14854,0,0.0,,,,,,,,
5,14856,0,0.0,,,,,,,,
6,14857,0,0.0,,,,,,,,
0,14861,4,93.02,-593.38,787.35,29.3,21.36,22.58,-1.01,26.27,-12.66
1,14872,5,-13.18,-982.79,174.32,93.38,10.99,-3.05,34.9,40.11,-3.69
2,14884,5,-108.4,-998.17,58.47,28.08,29.91,4.88,25.78,36.57,2.16
3,14896,1,0.0,,,,,,,,
4,14898,0,0.0,,,,,,,,
5,14900,0,0.0,,,,,,,,
6,14901,1,0.0,,,,,,,,
0,14905,4,103.76,-593.63,786.38,25.63,26.25,26.25,-0.56,25.31,-13.09
1,14917,4,-19.29,-996.95,171.51,90.94,8.54,-6.1,34.72,40.11,-3.89
2,14932,6,-119.75,-1001.71,61.04,27.47,15.26,4.88,25.4,36.93,1.28
3,14945,0,0.0,,,,,,,,
4,14946,0,0.0,,,,,,,,
5,14948,0,0.0,,,,,,,,
6,14949,1,0.0,,,,,,,,
0,14953,4,99.37,-594.6,786.01,28.08,24.41,26.25,-0.48,25.89,-12.81
1,14965,4,-20.26,-987.43,174.44,95.21,9.77,-8.54,35.1,40.95,-3.58
2,14977,5,-110.35,-998.05,59.69,29.3,25.63,1.83,25.65,36.45,0.84
3,14989,0,0.0,,,,,,,,
4,14990,0,0.0,,,,,,,,
5,14992,0,0.0,,,,,,,,
6,14994,0,0.0,,,,,,,,
0,15001,4,102.29,-593.63,786.01,22.58,21.97,22.58,-0.39,25.82,-12.87
1,15013,3,-21.24,-987.55,172.61,89.11,12.21,-2.44,35.1,40.95,-3.58
2,15024,5,-121.7,-1000.85,58.35,25.63,12.21,3.66,25.95,36.06,0.84
3,15036,0,0.0,,,,,,,,
4,15037,1,0.0,,,,,,,,
5,15039,0,0.0,,,,,,,,
6,15041,0,0.0,,,,,,,,
0,15044,5,101.93,-591.06,787.72,21.36,15.26,15.87,-0.49,25.44,-13.27
1,15056,4,-20.63,-990.72,173.83,90.33,14.04,0.61,34.55,40.69,-4.42
2,15069,4,-106.2,-997.19,60.3,25.63,15.87,5.49,25.18,36.46,1.68
3,15084,0,0.0,,,,,,,,
4,15085,1,0.0,,,,,,,,
5,15087,0,0.0,,,,,,,,
6,15089,0,0.0,,,,,,,,
0,15092,5,102.78,-592.77,785.77,22.58,17.09,20.75,-1.01,25.54,-13.39
1,15105,4,-25.88,-994.75,171.63,93.38,13.43,-6.1,34.62,41.16,-4.10
2,15117,4,-120.97,-998.29,61.52,25.63,4.88,2.44,25.7,35.96,2.15
3,15128,0,0.0,,,,,,,,
4,15130,0,0.0,,,,,,,,
5,15131,0,0.0,,,,,,,,
6,15133,0,0.0,,,,,,,,
0,15136,5,102.78,-595.46,785.4,18.31,15.26,18.92,-0.76,25.33,-12.87
1,15154,5,-15.87,-987.18,174.19,95.21,11.6,5.49,34.53,41.04,-4.54
2,15166,4,-102.91,-996.95,65.43,31.74,18.31,4.27,26.34,36.17,2.69
3,15177,0,0.0,,,,,,,,
4,15179,0,0.0,,,,,,,,
5,15180,1,0.0,,,,,,,,
6,15182,0,0.0,,,,,,,,
0,15186,5,104.49,-591.8,785.89,18.31,14.04,20.14,-0.51,25.09,-12.34
1,15198,5,-19.53,-993.77,170.29,93.38,11.6,1.22,34.57,40.45,-4.22
2,15210,4,-113.77,-997.19,58.47,31.74,-5.49,0.61,26.15,36.78,1.09
3,15221,0,0.0,,,,,,,,
4,15227,0,0.0,,,,,,,,
5,15228,1,0.0,,,,,,,,
6,15230,0,0.0,,,,,,,,
0,15235,4,99.98,-594.24,787.11,15.87,15.26,22.58,-1.16,25.65,-12.94
1,15246,5,-19.9,-989.38,172.24,93.99,9.77,-4.88,34.66,40.61,-4.30
2,15258,4,-115.6,-997.92,63.11,36.62,7.32,2.44,26.12,36.38,1.77
3,15269,0,0.0,,,,,,,,
4,15271,0,0.0,,,,,,,,
5,15273,0,0.0,,,,,,,,
6,15275,0,0.0,,,,,,,,
0,15279,4,99.12,-593.51,790.04,11.6,13.43,20.14,-0.84,25.07,-13.10
1,15290,5,-18.31,-989.75,171.02,93.38,9.77,0.0,34.96,40.98,-4.24
2,15306,4,-108.89,-993.29,58.84,40.28,21.36,-1.22,26.07,36.19,2.36
3,15318,0,0.0,,,,,,,,
4,15320,0,0.0,,,,,,,,
5,15321,1,0.0,,,,,,,,
6,15323,0,0.0,,,,,,,,
0,15327,4,98.27,-590.82,785.64,1.83,17.7,28.69,-0.49,24.91,-12.83
1,15338,5,-17.46,-992.19,170.53,97.05,9.77,-9.77,34.77,40.47,-4.88
2,15350,3,-116.94,-1001.83,50.66,37.23,28.08,0.0,26.07,36.19,2.36
3,15361,0,0.0,,,,,,,,
4,15363,0,0.0,,,,,,,,
5,15365,0,0.0,,,,,,,,
6,15366,0,0.0,,,,,,,,
0,15370,3,100.22,-589.97,791.38,3.66,16.48,26.86,-0.49,24.91,-12.83
1,15384,5,-27.71,-1000.24,166.26,97.66,12.21,-7.93,35.36,40.11,-4.47
2,15396,4,-120.0,-1005.86,44.07,28.08,20.75,5.49,25.9,36.24,1.66
3,15408,1,0.0,,,,,,,,
4,15410,0,0.0,,,,,,,,
5,15412,0,0.0,,,,,,,,
6,15413,0,0.0,,,,,,,,
0,15417,4,101.07,-583.74,792.36,14.65,12.21,17.7,-0.87,24.91,-14.00
1,15429,4,-21.36,-993.16,171.39,89.11,15.26,0.61,34.84,40.31,-4.92
2,15440,6,-105.22,-1001.34,59.33,25.63,24.41,3.66,25.88,35.91,1.38
3,15456,1,0.0,,,,,,,,
4,15458,0,0.0,,,,,,,,
5,15460,0,0.0,,,,,,,,
6,15461,0,0.0,,,,,,,,
0,15465,4,101.68,-587.89,789.06,19.53,18.31,21.97,-0.87,25.12,-12.81
1,15477,4,-21.73,-990.36,169.31,92.77,11.6,-10.38,35.11,40.53,-3.76
2,15489,5,-115.84,-996.83,55.66,30.52,11.6,-1.22,26.15,36.11,1.21
3,15501,0,0.0,,,,,,,,
4,15502,0,0.0,,,,,,,,
5,15504,0,0.0,,,,,,,,
6,15506,0,0.0,,,,,,,,
0,15509,5,106.81,-585.57,789.67,17.7,14.65,17.7,-0.37,25.49,-12.11
1,15525,4,-18.68,-993.29,169.31,89.11,14.65,4.88,34.41,40.49,-4.69
2,15537,5,-99.85,-1002.81,54.44,26.86,12.21,1.83,26.16,36.76,2.16
3,15549,0,0.0,,,,,,,,
4,15550,1,0.0,,,,,,,,
5,15552,0,0.0,,,,,,,,
6,15554,0,0.0,,,,,,,,
0,15557,5,103.52,-587.28,790.65,20.14,15.26,17.7,-0.89,25.37,-12.68
1,15569,3,-24.17,-995.48,169.07,89.11,15.87,-6.71,34.41,40.49,-4.69
2,15581,4,-125.12,-1000.98,51.27,29.91,-28.08,-6.71,26.42,36.15,2.08
3,15592,0,0.0,,,,,,,,
4,15598,0,0.0,,,,,,,,
5,15599,0,0.0,,,,,,,,
6,15601,0,0.0,,,,,,,,
0,15604,5,100.71,-587.4,788.57,21.97,12.21,15.26,-0.54,25.10,-13.13
1,15617,5,-27.1,-991.09,169.92,87.28,16.48,-1.83,35.38,40.58,-4.81
2,15629,4,-118.9,-1000.73,54.44,23.8,-8.54,-3.66,26.12,36.73,2.29
3,15640,0,0.0,,,,,,,,
4,15642,0,0.0,,,,,,,,
5,15644,0,0.0,,,,,,,,
6,15645,0,0.0,,,,,,,,
0,15649,4,101.81,-585.82,792.36,22.58,8.54,15.26,-0.48,25.05,-13.57
1,15661,5,-21.73,-993.41,171.14,86.67,15.87,5.49,35.3,40.92,-3.86
2,15677,4,-111.08,-1000.98,53.83,22.58,-3.66,-0.61,25.76,36.44,1.66
3,15688,0,0.0,,,,,,,,
4,15690,0,0.0,,,,,,,,
5,15692,0,0.0,,,,,,,,
6,15693,0,0.0,,,,,,,,
0,15697,5,96.44,-587.16,789.79,24.41,16.48,17.7,-0.94,24.84,-13.28
1,15709,5,-15.87,-988.16,170.04,82.4,12.82,-2.44,35.23,41.33,-4.63
2,15721,5,-109.01,-997.68,52.49,21.36,-3.05,-7.32,25.5,36.63,2.23
3,15733,0,0.0,,,,,,,,
4,15734,0,0.0,,,,,,,,
5,15736,0,0.0,,,,,,,,
6,15737,1,0.0,,,,,,,,
0,15746,4,107.79,-586.91,788.09,21.97,14.65,18.31,-0.42,25.15,-12.81
1,15758,4,-21.0,-990.11,171.63,79.35,14.04,0.0,34.78,41.05,-4.02
2,15769,5,-124.39,-1000.24,56.15,13.43,-3.05,-3.66,26.25,36.82,1.35
3,15781,0,0.0,,,,,,,,
4,15782,0,0.0,,,,,,,,
5,15784,0,0.0,,,,,,,,
6,15787,0,0.0,,,,,,,,
0,15790,4,95.83,-587.4,789.92,20.14,12.21,17.7,-0.56,25.13,-13.12
1,15802,4,-22.34,-990.6,173.1,86.06,14.04,-4.88,34.51,40.81,-4.04
2,15813,5,-118.65,-999.88,55.91,14.04,0.0,-5.49,25.45,36.82,1.20
3,15830,0,0.0,,,,,,,,
4,15831,0,0.0,,,,,,,,
5,15833,0,0.0,,,,,,,,
6,15835,0,0.0,,,,,,,,
0,15838,4,99.37,-587.4,789.43,18.92,14.65,20.75,-0.33,25.17,-12.84
1,15850,4,-20.02,-989.14,171.63,91.55,12.82,-0.61,35.1,40.15,-4.43
2,15861,5,-116.58,-997.19,60.42,17.09,18.31,-6.1,25.66,36.66,1.62
3,15874,0,0.0,,,,,,,,
4,15875,1,0.0,,,,,,,,
5,15877,0,0.0,,,,,,,,
6,15879,0,0.0,,,,,,,,
0,15882,5,101.2,-586.91,790.65,18.92,15.26,20.14,-0.77,24.69,-12.54
1,15898,4,-21.61,-991.94,172.0,86.67,13.43,2.44,34.94,40.64,-4.27
2,15909,4,-123.05,-1000.0,57.01,18.92,5.49,-4.88,25.66,36.66,1.62
3,15921,0,0.0,,,,,,,,
4,15922,0,0.0,,,,,,,,
5,15924,0,0.0,,,,,,,,
6,15926,0,0.0,,,,,,,,
0,15929,4,100.34,-585.45,791.75,17.09,14.65,21.36,0.12,25.45,-12.35
1,15941,4,-20.26,-990.6,172.12,91.55,11.6,-3.05,34.88,40.14,-5.11
2,15953,5,-112.18,-997.8,59.69,17.7,9.16,-2.44,25.32,37.01,1.81
3,15965,0,0.0,,,,,,,,
4,15970,0,0.0,,,,,,,,
5,15972,0,0.0,,,,,,,,
6,15974,0,0.0,,,,,,,,
0,15977,5,101.93,-587.65,790.41,17.09,12.21,21.97,-0.28,25.39,-12.68
1,15989,4,-19.17,-988.89,172.85,93.38,11.6,-3.66,34.75,40.65,-3.61
2,16002,4,-121.46,-1010.25,61.77,19.53,-4.27,-8.54,25.46,36.80,0.28
3,16013,0,0.0,,,,,,,,
4,16015,0,0.0,,,,,,,,
5,16016,0,0.0,,,,,,,,
6,16018,0,0.0,,,,,,,,
0,16021,5,106.69,-583.25,790.53,13.43,11.6,23.8,-0.42,25.87,-13.50
1,16033,5,-25.15,-994.38,171.63,94.6,12.82,-5.49,35.5,40.43,-4.71
2,16050,4,-120.73,-1000.49,58.96,17.09,1.22,-1.22,25.18,36.87,1.33
3,16061,0,0.0,,,,,,,,
4,16063,0,0.0,,,,,,,,
5,16064,1,0.0,,,,,,,,
6,16066,0,0.0,,,,,,,,
0,16070,4,100.59,-584.35,795.53,17.09,13.43,19.53,-0.65,25.02,-13.32
1,16081,6,-17.94,-989.01,173.34,90.94,15.26,1.22,35.07,40.58,-4.38
2,16094,4,-113.16,-996.83,63.6,16.48,15.87,-2.44,26.01,35.95,1.84
3,16105,0,0.0,,,,,,,,
4,16107,0,0.0,,,,,,,,
5,16109,0,0.0,,,,,,,,
6,16110,0,0.0,,,,,,,,
0,16118,4,103.64,-582.4,790.65,17.09,13.43,20.75,-0.38,25.12,-13.21
1,16130,4,-24.9,-995.0,172.49,91.55,13.43,-5.49,35.07,40.58,-4.38
2,16141,5,-127.81,-1000.98,61.04,15.87,-9.77,-1.22,25.73,36.46,1.01
3,16153,0,0.0,,,,,,,,
4,16154,0,0.0,,,,,,,,
5,16156,0,0.0,,,,,,,,
6,16157,1,0.0,,,,,,,,
0,16161,3,99.0,-585.57,792.48,18.31,12.21,18.92,-0.38,25.12,-13.21
1,16173,4,-21.48,-991.46,171.63,93.38,12.82,0.61,35.02,40.89,-4.57
2,16184,5,-116.09,-1000.49,60.42,14.65,10.99,0.0,25.96,37.05,1.00
3,16199,1,0.0,,,,,,,,
4,16201,0,0.0,,,,,,,,
5,16203,0,0.0,,,,,,,,
6,16204,1,0.0,,,,,,,,
0,16208,4,97.53,-583.25,793.33,20.14,11.6,19.53,-0.94,24.71,-12.54
1,16221,4,-20.39,-993.16,171.88,88.5,14.04,-2.44,34.68,40.66,-4.98
2,16232,5,-120.73,-1000.73,62.74,10.99,-9.16,-0.61,25.45,36.90,1.14
3,16244,0,0.0,,,,,,,,
4,16245,1,0.0,,,,,,,,
5,16247,0,0.0,,,,,,,,
6,16249,0,0.0,,,,,,,,
0,16252,6,100.95,-583.5,792.36,25.63,15.87,20.14,-0.78,24.94,-14.50
1,16269,4,-17.33,-990.11,173.1,90.94,12.21,-0.61,34.41,40.14,-4.76
2,16280,5,-119.63,-994.63,69.58,10.38,-5.49,-1.22,26.14,36.38,0.68
3,16292,0,0.0,,,,,,,,
4,16293,1,0.0,,,,,,,,
5,16295,0,0.0,,,,,,,,
6,16297,0,0.0,,,,,,,,
0,16301,5,101.07,-583.13,792.11,21.97,15.87,18.92,-0.51,24.93,-12.82
1,16313,4,-23.07,-994.75,172.36,91.55,12.82,-1.83,34.84,40.53,-3.80
2,16325,4,-121.83,-1000.61,69.34,10.38,-5.49,0.0,25.02,36.83,1.23
3,16336,0,0.0,,,,,,,,
4,16343,0,0.0,,,,,,,,
5,16344,0,0.0,,,,,,,,
6,16346,0,0.0,,,,,,,,
0,16349,5,97.41,-584.47,791.02,28.08,15.87,18.92,-0.68,25.45,-12.98
1,16361,4,-21.48,-990.23,173.83,89.72,14.04,-4.27,34.68,40.84,-4.22
2,16373,4,-117.68,-997.56,70.56,12.82,-10.38,-6.1,25.1,36.38,2.04
3,16385,0,0.0,,,,,,,,
4,16387,0,0.0,,,,,,,,
5,16388,1,0.0,,,,,,,,
6,16390,0,0.0,,,,,,,,
0,16393,5,103.27,-585.94,790.65,27.47,15.87,20.75,-1.18,24.68,-12.78
1,16405,5,-24.17,-990.11,173.22,88.5,12.82,3.05,34.79,40.34,-3.75
2,16421,4,-126.46,-998.9,70.19,14.04,-17.7,-4.27,24.99,36.79,1.97
3,16433,0,0.0,,,,,,,,
4,16435,0,0.0,,,,,,,,
5,16436,1,0.0,,,,,,,,
6,16438,0,0.0,,,,,,,,
0,16442,4,99.24,-583.86,792.6,24.41,10.99,16.48,-0.71,24.99,-12.70
1,16453,5,-23.56,-992.92,172.36,86.67,15.87,1.22,34.09,40.53,-4.31
2,16465,3,-125.0,-1000.37,70.92,6.71,-10.99,-3.05,24.99,36.79,1.97
3,16476,0,0.0,,,,,,,,
4,16478,0,0.0,,,,,,,,
5,16480,0,0.0,,,,,,,,
6,16481,0,0.0,,,,,,,,
0,16488,5,100.95,-585.82,791.26,26.86,15.26,17.7,-0.99,25.31,-13.12
1,16500,5,-22.46,-989.99,173.34,86.67,14.04,-0.61,34.85,40.42,-4.39
2,16513,4,-126.34,-997.07,77.51,7.93,-4.88,-3.66,25.46,35.94,0.04
3,16524,0,0.0,,,,,,,,
4,16526,0,0.0,,,,,,,,
5,16528,0,0.0,,,,,,,,
6,16529,0,0.0,,,,,,,,
0,16533,4,100.71,-586.06,789.43,23.19,12.82,14.04,-1.33,25.00,-12.74
1,16544,5,-19.04,-986.45,175.05,87.28,14.04,4.88,35.13,40.83,-4.17
2,16557,5,-118.41,-994.75,77.51,13.43,-3.05,-4.88,25.15,36.56,0.89
3,16572,0,0.0,,,,,,,,
4,16574,0,0.0,,,,,,,,
5,16576,0,0.0,,,,,,,,
6,16577,0,0.0,,,,,,,,
0,16581,4,100.59,-584.35,790.89,26.86,15.26,17.09,-0.51,25.05,-12.49
1,16592,6,-17.58,-991.21,174.07,90.33,12.21,2.44,34.81,39.95,-3.54
2,16605,4,-130.62,-1000.37,76.78,12.21,-12.82,-7.32,25.78,36.99,1.04
3,16617,0,0.0,,,,,,,,
4,16618,0,0.0,,,,,,,,
5,16620,0,0.0,,,,,,,,
6,16621,1,0.0,,,,,,,,
0,16625,4,99.98,-586.18,791.38,29.3,12.82,14.65,-1.16,24.87,-12.41
1,16641,5,-23.44,-992.43,172.85,89.11,15.87,1.22,35.35,40.73,-3.21
2,16653,5,-126.71,-998.05,73.24,6.71,-24.41,-6.71,25.76,37.06,0.62
3,16665,0,0.0,,,,,,,,
4,16666,0,0.0,,,,,,,,
5,16668,0,0.0,,,,,,,,
6,16669,1,0.0,,,,,,,,
0,16673,4,96.56,-580.93,794.07,28.69,9.77,12.21,-1.11,25.22,-13.40
1,16686,3,-24.29,-998.05,173.83,89.72,14.65,3.05,35.35,40.73,-3.21
2,16696,5,-138.31,-994.02,84.72,11.6,-6.1,1.83,25.9,36.02,0.62
3,16708,0,0.0,,,,,,,,
4,16713,0,0.0,,,,,,,,
5,16715,0,0.0,,,,,,,,
6,16716,0,0.0,,,,,,,,
0,16720,4,101.56,-592.04,786.87,31.13,4.88,6.71,-1.27,25.71,-13.10
1,16733,4,-17.46,-988.04,176.64,84.23,16.48,12.82,35.31,40.67,-3.99
2,16744,5,-120.85,-994.26,88.26,23.19,-25.02,-5.49,25.55,36.93,0.61
3,16756,0,0.0,,,,,,,,
4,16757,0,0.0,,,,,,,,
5,16759,0,0.0,,,,,,,,
6,16761,0,0.0,,,,,,,,
0,16764,5,88.5,-590.94,790.41,29.3,4.27,6.71,-0.71,25.73,-12.40
1,16777,4,-5.0,-982.3,176.64,86.06,12.82,14.04,36.05,40.45,-4.17
2,16792,5,-126.34,-997.31,82.03,25.02,-8.54,-4.27,25.61,36.57,1.60
3,16804,0,0.0,,,,,,,,
4,16805,0,0.0,,,,,,,,
5,16807,0,0.0,,,,,,,,
6,16809,0,0.0,,,,,,,,
0,16813,4,88.13,-586.67,792.48,29.3,15.87,20.75,-1.29,26.01,-12.01
1,16825,4,-24.9,-997.07,174.68,89.11,12.21,-4.88,35.44,40.30,-3.39
2,16836,5,-138.18,-1000.49,76.66,20.14,9.77,2.44,25.44,36.50,1.23
3,16848,0,0.0,,,,,,,,
4,16849,1,0.0,,,,,,,,
5,16851,0,0.0,,,,,,,,
6,16854,0,0.0,,,,,,,,
0,16861,4,94.48,-590.58,786.25,31.74,15.26,17.09,-1.1,25.57,-12.27
1,16873,4,-17.21,-982.42,176.88,87.28,14.04,4.27,35.71,40.49,-4.06
2,16884,5,-130.0,-999.15,81.79,20.75,15.26,4.27,25.71,36.06,0.87
3,16897,0,0.0,,,,,,,,
4,16898,0,0.0,,,,,,,,
5,16900,0,0.0,,,,,,,,
6,16902,0,0.0,,,,,,,,
0,16905,4,82.76,-587.16,793.46,34.18,17.09,18.92,-1.14,25.71,-12.93
1,16917,4,-10.86,-987.55,175.66,87.89,10.38,-0.61,35.07,40.04,-4.15
2,16929,4,-115.72,-995.48,87.89,30.52,28.08,-3.05,26.09,36.60,0.22
3,16945,0,0.0,,,,,,,,
4,16946,1,0.0,,,,,,,,
5,16948,0,0.0,,,,,,,,
6,16950,0,0.0,,,,,,,,
0,16953,5,95.95,-597.9,787.23,35.4,34.18,26.25,-1.5,25.73,-13.20
1,16965,4,-18.68,-986.45,176.39,89.72,10.99,1.83,35.27,39.86,-5.02
2,16977,5,-129.64,-990.48,76.54,32.96,12.21,-2.44,26.0,36.52,0.06
3,16989,0,0.0,,,,,,,,
4,16991,0,0.0,,,,,,,,
5,16992,0,0.0,,,,,,,,
6,16994,0,0.0,,,,,,,,
0,16997,4,101.44,-595.21,783.94,23.8,18.92,15.26,-1.5,25.73,-13.20
1,17012,4,-21.61,-988.53,174.44,89.72,17.09,6.71,35.44,40.28,-4.38
2,17025,3,-128.91,-998.41,78.61,26.86,-9.16,1.22,26.0,36.52,0.06
3,17035,0,0.0,,,,,,,,
4,17037,0,0.0,,,,,,,,
5,17038,0,0.0,,,,,,,,
6,17040,0,0.0,,,,,,,,
0,17059,4,99.61,-592.41,786.25,14.65,14.04,12.82,-1.26,26.21,-12.81
1,17074,4,-17.7,-992.68,175.29,87.89,15.87,6.71,35.58,40.10,-4.11
2,17085,5,-132.2,-1000.49,79.35,21.36,-7.93,6.1,25.92,36.60,1.00
3,17097,0,0.0,,,,,,,,
4,17101,0,0.0,,,,,,,,
5,17103,0,0.0,,,,,,,,
6,17104,0,0.0,,,,,,,,
0,17108,5,95.21,-592.9,786.62,15.26,14.65,13.43,-1.15,26.48,-12.34
1,17120,5,-12.33,-989.01,174.07,86.67,14.04,4.88,34.91,40.19,-4.50
2,17132,5,-125.61,-993.41,87.4,15.26,0.0,7.93,25.65,36.67,1.07
3,17143,1,0.0,,,,,,,,
4,17145,0,0.0,,,,,,,,
5,17147,0,0.0,,,,,,,,
6,17148,0,0.0,,,,,,,,
0,17153,4,98.14,-594.85,786.01,15.87,10.99,14.04,-1.68,26.06,-12.50
1,17165,4,-14.65,-990.97,175.42,87.89,12.82,0.0,34.62,40.26,-4.15
2,17180,5,-124.51,-998.66,83.98,21.36,-18.31,10.38,25.33,36.52,1.01
3,17192,0,0.0,,,,,,,,
4,17193,0,0.0,,,,,,,,
5,17196,0,0.0,,,,,,,,
6,17198,0,0.0,,,,,,,,
0,17201,4,98.63,-590.21,786.62,16.48,10.38,14.65,-1.38,25.82,-12.61
1,17213,4,-16.11,-992.07,175.05,93.38,12.21,1.22,35.18,40.53,-4.05
2,17224,4,-129.52,-1000.61,82.64,21.36,-6.71,7.93,25.33,36.52,1.01
3,17235,0,0.0,,,,,,,,
4,17236,2,0.0,,,,,,,,
5,17239,0,0.0,,,,,,,,
6,17241,0,0.0,,,,,,,,
0,17244,3,91.92,-590.58,787.35,15.87,12.82,13.43,-1.38,25.82,-12.61
1,17259,4,-10.5,-990.11,176.51,89.72,9.77,0.0,34.59,40.49,-4.83
2,17270,5,-133.79,-1000.61,79.47,25.02,-8.54,7.32,26.17,36.71,-0.12
3,17283,0,0.0,,,,,,,,
4,17284,1,0.0,,,,,,,,
5,17286,0,0.0,,,,,,,,
6,17288,0,0.0,,,,,,,,
0,17291,5,92.29,-590.82,790.77,20.75,14.65,15.87,-1.23,25.81,-12.93
1,17303,4,-14.89,-994.38,175.42,89.72,12.82,1.22,35.29,40.14,-4.27
2,17315,4,-126.1,-999.39,79.59,20.75,1.83,7.93,25.77,36.56,1.40
3,17331,0,0.0,,,,,,,,
4,17332,1,0.0,,,,,,,,
5,17334,0,0.0,,,,,,,,
6,17336,0,0.0,,,,,,,,
0,17339,5,97.53,-591.55,788.21,18.92,21.97,17.7,-1.42,25.74,-12.78
1,17351,4,-13.31,-988.89,176.15,84.84,12.21,-3.66,34.97,40.28,-4.48
2,17363,5,-125.49,-989.99,87.65,22.58,2.44,5.49,25.87,36.63,1.55
3,17375,0,0.0,,,,,,,,
4,17377,0,0.0,,,,,,,,
5,17378,0,0.0,,,,,,,,
6,17380,0,0.0,,,,,,,,
0,17383,5,97.53,-593.14,789.31,17.7,14.65,14.65,-1.22,25.34,-12.92
1,17399,4,-14.65,-992.92,177.12,97.66,15.87,6.1,34.51,40.21,-3.63
2,17412,4,-122.68,-1000.49,88.87,31.13,3.66,7.32,25.92,36.61,0.32
3,17423,0,0.0,,,,,,,,
4,17425,0,0.0,,,,,,,,
5,17426,0,0.0,,,,,,,,
6,17428,0,0.0,,,,,,,,
0,17431,5,94.12,-591.55,788.33,18.31,15.87,15.87,-1.76,25.83,-12.71
1,17443,3,-9.89,-989.38,176.03,99.49,12.21,-3.66,34.51,40.21,-3.63
2,17455,4,-121.58,-990.36,85.08,39.06,4.88,3.66,25.67,36.96,0.15
3,17466,0,0.0,,,,,,,,
4,17468,0,0.0,,,,,,,,
5,17473,0,0.0,,,,,,,,
6,17475,0,0.0,,,,,,,,
0,17478,5,96.8,-590.82,789.18,17.09,13.43,19.53,-1.7,25.78,-12.76
1,17490,5,-18.43,-993.29,173.95,101.32,11.6,1.83,35.03,40.31,-3.75
2,17503,4,-127.93,-1000.61,77.64,40.28,6.1,4.88,25.21,36.24,0.63
3,17514,0,0.0,,,,,,,,
4,17516,0,0.0,,,,,,,,
5,17517,0,0.0,,,,,,,,
6,17519,0,0.0,,,,,,,,
0,17522,5,91.92,-588.87,791.14,17.09,16.48,17.7,-1.64,25.34,-12.68
1,17534,6,-6.47,-994.02,173.95,95.83,10.38,0.61,35.46,40.92,-4.48
2,17551,4,-124.88,-996.09,80.69,31.13,6.1,1.83,25.21,36.90,0.09
3,17562,0,0.0,,,,,,,,
4,17564,0,0.0,,,,,,,,
5,17565,0,0.0,,,,,,,,
6,17567,0,0.0,,,,,,,,
0,17570,5,99.24,-588.01,790.89,12.82,18.92,18.92,-2.11,25.71,-12.02
1,17583,4,-11.6,-991.09,173.1,90.33,12.82,0.0,34.95,40.37,-4.46
2,17595,4,-127.08,-1000.37,77.15,26.86,-7.32,4.27,24.74,37.08,0.84
3,17606,0,0.0,,,,,,,,
4,17608,0,0.0,,,,,,,,
5,17609,0,0.0,,,,,,,,
6,17611,0,0.0,,,,,,,,
0,17614,5,94.12,-587.77,793.09,11.6,18.31,18.31,-2.17,25.96,-12.99
1,17631,4,-13.92,-990.84,174.56,90.94,14.04,-3.05,34.96,40.42,-2.76
2,17643,4,-128.05,-1000.49,78.12,24.41,1.83,6.71,25.12,36.32,0.67
3,17654,0,0.0,,,,,,,,
4,17656,0,0.0,,,,,,,,
5,17657,0,0.0,,,,,,,,
6,17659,0,0.0,,,,,,,,
0,17662,6,97.41,-588.75,790.77,11.6,17.7,15.87,-2.12,25.52,-12.29
1,17675,5,-10.62,-989.75,174.56,88.5,13.43,3.05,35.06,41.06,-3.05
2,17687,4,-121.7,-999.88,80.69,26.25,0.0,6.1,25.57,36.08,0.65
3,17702,0,0.0,,,,,,,,
4,17703,1,0.0,,,,,,,,
5,17705,0,0.0,,,,,,,,
6,17708,0,0.0,,,,,,,,
0,17711,5,93.14,-584.72,793.58,13.43,16.48,13.43,-1.45,25.72,-12.01
1,17723,4,-12.82,-993.53,174.56,89.72,14.65,0.0,35.03,40.64,-3.92
2,17735,4,-125.12,-999.88,80.81,26.86,0.61,2.44,25.48,36.76,1.10
3,17746,0,0.0,,,,,,,,
4,17748,0,0.0,,,,,,,,
5,17750,0,0.0,,,,,,,,
6,17752,0,0.0,,,,,,,,
0,17755,5,96.92,-585.57,793.21,16.48,19.53,15.87,-1.54,25.50,-12.50
1,17767,4,-11.84,-991.21,175.17,93.38,13.43,2.44,35.73,40.32,-4.22
2,17783,3,-127.44,-997.44,80.69,28.69,3.05,3.05,25.48,36.76,1.10
3,17794,0,0.0,,,,,,,,
4,17795,1,0.0,,,,,,,,
5,17797,0,0.0,,,,,,,,
6,17799,0,0.0,,,,,,,,
0,17802,5,94.73,-586.55,793.33,15.26,18.31,12.21,-1.64,26.01,-12.66
1,17814,4,-12.33,-988.89,174.56,93.38,14.04,3.05,35.69,40.41,-3.19
2,17826,4,-118.04,-997.56,81.18,30.52,6.1,1.22,26.1,37.13,0.72
3,17838,0,0.0,,,,,,,,
4,17840,0,0.0,,,,,,,,
5,17841,0,0.0,,,,,,,,
6,17847,0,0.0,,,,,,,,
0,17850,4,97.29,-584.47,792.97,15.87,17.09,14.65,-1.66,25.71,-12.37
1,17862,4,-12.21,-992.92,172.12,90.33,14.04,2.44,35.16,40.56,-3.64
2,17874,5,-126.95,-998.41,78.61,30.52,7.93,0.61,25.26,36.89,0.44
3,17886,0,0.0,,,,,,,,
4,17887,1,0.0,,,,,,,,
5,17889,0,0.0,,,,,,,,
6,17891,0,0.0,,,,,,,,
0,17894,5,95.34,-583.25,793.09,17.09,17.09,13.43,-1.75,25.50,-11.83
1,17906,4,-9.89,-991.09,174.68,91.55,12.82,1.22,35.82,40.45,-3.94
2,17918,5,-116.09,-996.83,78.0,28.69,4.27,1.22,25.6,36.96,0.49
3,17934,0,0.0,,,,,,,,
4,17935,0,0.0,,,,,,,,
5,17937,0,0.0,,,,,,,,
6,17939,0,0.0,,,,,,,,
0,17942,4,98.14,-585.08,793.58,20.14,16.48,18.31,-1.15,25.29,-12.51
1,17954,3,-12.21,-990.36,174.68,90.33,12.82,-1.83,35.82,40.45,-3.94
2,17966,4,-126.71,-998.66,79.83,28.69,0.0,1.22,26.03,36.99,-0.51
3,17977,0,0.0,,,,,,,,
4,17979,0,0.0,,,,,,,,
5,17980,0,0.0,,,,,,,,
6,17982,0,0.0,,,,,,,,
0,17985,4,95.95,-583.86,792.24,19.53,13.43,16.48,-1.15,25.29,-12.51
1,18000,4,-12.57,-992.07,174.07,90.94,13.43,-1.83,35.25,40.64,-4.75
2,18012,5,-121.58,-996.58,79.35,29.91,7.32,2.44,26.25,36.28,0.90
3,18024,0,0.0,,,,,,,,
4,18025,1,0.0,,,,,,,,
5,18027,0,0.0,,,,,,,,
6,18029,0,0.0,,,,,,,,
0,18032,5,96.07,-584.23,795.29,19.53,12.82,16.48,-1.35,25.37,-12.62
1,18044,5,-13.06,-990.23,173.83,87.89,12.82,1.83,35.78,39.97,-4.77
2,18057,4,-121.09,-1000.24,77.03,32.35,4.27,1.83,26.25,36.67,0.74
3,18068,0,0.0,,,,,,,,
4,18073,0,0.0,,,,,,,,
5,18075,0,0.0,,,,,,,,
6,18077,0,0.0,,,,,,,,
0,18080,4,96.8,-585.45,794.56,15.87,14.04,17.09,-1.01,25.96,-12.35
1,18093,4,-9.89,-989.5,172.61,92.77,12.21,-2.44,35.01,39.92,-3.93
2,18105,4,-114.14,-1000.49,77.88,31.74,6.71,3.05,25.2,36.72,0.54
3,18116,0,0.0,,,,,,,,
4,18118,0,0.0,,,,,,,,
5,18119,0,0.0,,,,,,,,
6,18121,0,0.0,,,,,,,,
0,18124,5,97.17,-582.4,793.21,20.14,10.99,19.53,-1.26,25.94,-12.39
1,18137,4,-12.21,-991.21,170.9,93.38,8.54,-5.49,35.14,40.09,-4.82
2,18153,4,-128.17,-998.29,76.17,30.52,-9.16,1.83,26.29,36.87,-0.27
3,18164,0,0.0,,,,,,,,
4,18166,0,0.0,,,,,,,,
5,18167,0,0.0,,,,,,,,
6,18169,0,0.0,,,,,,,,
0,18172,6,94.48,-582.03,793.46,20.75,10.38,16.48,-0.33,25.45,-12.35
1,18185,4,-9.77,-991.58,172.85,94.6,10.99,-1.22,34.72,40.10,-5.13
2,18197,4,-122.31,-1000.12,72.88,31.74,0.61,2.44,26.03,36.11,0.40
3,18208,0,0.0,,,,,,,,
4,18210,0,0.0,,,,,,,,
5,18211,0,0.0,,,,,,,,
6,18213,0,0.0,,,,,,,,
0,18221,5,93.26,-581.91,795.04,21.36,10.99,17.09,-0.95,25.46,-12.71
1,18233,4,-13.43,-990.84,172.36,90.33,10.99,-3.05,35.24,40.12,-4.32
2,18245,4,-129.52,-998.78,74.95,26.86,-1.22,3.66,25.87,36.24,0.81
3,18256,0,0.0,,,,,,,,
4,18258,0,0.0,,,,,,,,
5,18259,1,0.0,,,,,,,,
6,18262,0,0.0,,,,,,,,
0,18265,5,96.44,-584.72,794.8,20.75,7.93,17.09,-1.17,25.17,-12.55
1,18277,5,-10.99,-993.04,171.26,92.16,9.77,0.0,35.49,40.20,-3.99
2,18289,3,-120.24,-1000.61,73.24,28.08,3.66,4.88,25.87,36.24,0.81
3,18304,0,0.0,,,,,,,,
4,18306,0,0.0,,,,,,,,
5,18307,0,0.0,,,,,,,,
6,18309,0,0.0,,,,,,,,
0,18312,5,92.04,-580.44,795.78,18.92,12.82,18.31,-1.45,25.46,-13.68
1,18324,4,-10.13,-993.16,170.9,90.94,12.21,-3.66,34.79,40.15,-4.49
2,18336,4,-122.92,-997.8,73.12,29.3,4.88,4.27,25.46,36.54,0.00
3,18348,0,0.0,,,,,,,,
4,18350,0,0.0,,,,,,,,
5,18351,0,0.0,,,,,,,,
6,18353,0,0.0,,,,,,,,
0,18356,5,93.75,-582.76,795.53,20.75,13.43,16.48,-1.55,25.09,-13.32
1,18372,4,-10.99,-991.94,171.39,91.55,12.21,0.61,34.88,40.53,-3.45
2,18384,4,-122.44,-998.66,74.58,28.08,1.22,5.49,25.77,36.25,1.61
3,18396,0,0.0,,,,,,,,
4,18398,0,0.0,,,,,,,,
5,18399,0,0.0,,,,,,,,
6,18401,0,0.0,,,,,,,,
0,18404,5,94.73,-580.57,794.56,21.97,14.65,16.48,-1.04,24.87,-11.74
1,18416,4,-10.13,-994.75,170.9,92.16,11.6,0.0,34.58,40.92,-5.18
2,18428,5,-122.68,-1000.49,74.95,25.63,6.71,4.88,25.71,36.21,1.23
3,18440,0,0.0,,,,,,,,
4,18446,0,0.0,,,,,,,,
5,18447,0,0.0,,,,,,,,
6,18449,0,0.0,,,,,,,,
0,18452,5,93.38,-581.91,795.41,23.8,13.43,15.87,-0.88,25.16,-12.60
1,18464,4,-10.5,-989.62,172.97,89.11,13.43,0.61,34.79,41.15,-4.08
2,18477,4,-118.41,-998.29,71.53,28.69,5.49,6.1,25.68,36.50,0.66
3,18488,0,0.0,,,,,,,,
4,18490,0,0.0,,,,,,,,
5,18491,0,0.0,,,,,,,,
6,18493,0,0.0,,,,,,,,
0,18496,5,93.99,-581.05,794.68,21.97,12.21,14.04,-1.21,25.46,-11.45
1,18508,3,-13.31,-992.68,171.88,92.77,12.82,0.0,34.79,41.15,-4.08
2,18524,4,-119.87,-1000.49,74.46,27.47,-2.44,3.66,25.85,35.99,1.17
3,18535,0,0.0,,,,,,,,
4,18537,0,0.0,,,,,,,,
5,18538,0,0.0,,,,,,,,
6,18540,0,0.0,,,,,,,,
0,18543,5,88.99,-582.15,794.8,25.63,14.04,16.48,-1.28,25.32,-13.17
1,18555,6,-9.16,-990.97,171.51,90.33,10.99,-3.05,34.9,39.95,-3.30
2,18568,4,-121.58,-997.44,72.27,29.91,-2.44,3.05,25.96,36.61,1.61
3,18579,0,0.0,,,,,,,,
4,18581,0,0.0,,,,,,,,
5,18583,0,0.0,,,,,,,,
6,18584,0,0.0,,,,,,,,
0,18588,4,92.65,-582.52,795.78,22.58,15.26,17.09,-1.6,25.57,-13.28
1,18604,5,-11.23,-991.7,171.02,90.33,13.43,0.61,34.97,40.23,-3.94
2,18616,4,-120.0,-1000.37,74.71,28.08,4.27,3.66,25.72,36.73,0.90
3,18627,0,0.0,,,,,,,,
4,18629,0,0.0,,,,,,,,
5,18630,1,0.0,,,,,,,,
6,18632,0,0.0,,,,,,,,
0,18636,4,93.14,-582.89,796.02,27.47,13.43,17.7,-1.71,25.31,-13.24
1,18648,5,-13.06,-991.82,171.02,90.33,12.82,-0.61,34.8,40.23,-3.72
2,18660,4,-120.85,-997.68,72.39,29.91,-6.1,2.44,26.23,36.72,0.12
3,18675,0,0.0,,,,,,,,
4,18677,0,0.0,,,,,,,,
5,18679,0,0.0,,,,,,,,
6,18680,0,0.0,,,,,,,,
0,18684,5,91.19,-581.54,794.92,23.19,14.04,15.26,-1.78,25.44,-12.63
1,18696,5,-9.64,-993.16,171.75,90.94,12.21,0.61,35.29,40.71,-3.80
2,18708,4,-113.53,-994.63,75.44,28.69,9.16,4.27,25.6,36.38,1.38
3,18719,0,0.0,,,,,,,,
4,18721,0,0.0,,,,,,,,
5,18723,0,0.0,,,,,,,,
6,18724,0,0.0,,,,,,,,
0,18728,5,95.09,-582.03,795.04,22.58,14.04,13.43,-1.73,25.39,-12.82
1,18744,5,-9.4,-994.14,171.88,84.84,12.82,7.32,35.23,40.34,-3.71
2,18756,4,-115.72,-1007.57,65.19,33.57,-22.58,-2.44,26.5,36.67,-0.29
3,18767,1,0.0,,,,,,,,
4,18769,0,0.0,,,,,,,,
5,18771,0,0.0,,,,,,,,
6,18772,0,0.0,,,,,,,,
0,18777,4,91.67,-582.89,794.8,34.18,17.09,15.26,-1.61,25.34,-12.76
1,18789,4,-12.21,-991.82,170.9,83.01,13.43,-1.83,34.8,40.33,-3.42
2,18800,5,-120.24,-997.44,75.81,26.25,-13.43,-4.27,25.65,36.41,0.84
3,18812,0,0.0,,,,,,,,
4,18813,0,0.0,,,,,,,,
5,18820,0,0.0,,,,,,,,
6,18821,1,0.0,,,,,,,,
0,18825,4,97.78,-585.21,791.02,34.18,11.6,17.09,-2.1,25.49,-13.13
1,18837,4,-12.45,-989.62,172.49,87.89,12.82,2.44,35.31,39.93,-4.27
2,18848,5,-128.3,-999.15,76.05,24.41,9.16,4.88,25.87,36.35,0.77
3,18861,0,0.0,,,,,,,,
4,18862,0,0.0,,,,,,,,
5,18864,0,0.0,,,,,,,,
6,18866,0,0.0,,,,,,,,
0,18869,3,89.97,-586.55,794.68,30.52,16.48,14.04,-2.1,25.49,-13.13
1,18880,4,-9.16,-989.38,174.44,84.23,14.65,3.66,35.41,40.54,-3.91
2,18895,4,-122.8,-995.24,75.44,32.96,-6.1,0.61,25.87,36.35,0.77
3,18906,1,0.0,,,,,,,,
4,18908,0,0.0,,,,,,,,
5,18910,0,0.0,,,,,,,,
6,18911,0,0.0,,,,,,,,
0,18915,4,89.6,-586.3,790.41,29.91,15.87,15.26,-1.7,25.43,-13.24
1,18927,4,-7.81,-988.77,173.22,87.89,14.04,3.05,35.25,40.15,-3.97
2,18938,6,-117.68,-997.19,70.07,36.01,3.66,1.83,25.9,36.71,2.33
3,18950,1,0.0,,,,,,,,
4,18952,0,0.0,,,,,,,,
5,18954,0,0.0,,,,,,,,
6,18955,1,0.0,,,,,,,,
0,18959,4,95.09,-586.43,792.11,22.58,13.43,15.87,-1.5,25.46,-12.19
1,18974,5,-11.96,-994.87,172.61,88.5,13.43,4.88,34.9,40.15,-4.41
2,18987,4,-135.38,-1000.98,69.58,31.74,-5.49,3.66,25.63,36.60,0.94
3,18998,1,0.0,,,,,,,,
4,19000,0,0.0,,,,,,,,
5,19002,0,0.0,,,,,,,,
6,19003,0,0.0,,,,,,,,
0,19007,4,90.21,-588.5,790.89,28.69,17.7,14.04,-1.56,25.46,-12.74
1,19019,3,-6.59,-989.38,173.22,88.5,14.04,7.32,34.9,40.15,-4.41
2,19030,5,-118.65,-993.41,74.46,37.23,9.77,-1.83,25.89,36.17,0.81
3,19045,0,0.0,,,,,,,,
4,19047,0,0.0,,,,,,,,
5,19049,0,0.0,,,,,,,,
6,19050,0,0.0,,,,,,,,
0,19054,4,85.57,-587.89,791.02,21.36,14.04,13.43,-1.87,25.33,-13.06
1,19065,5,-2.81,-991.58,174.07,90.33,14.65,4.88,34.68,40.27,-3.76
2,19078,5,-116.82,-999.39,63.35,43.33,-2.44,-2.44,25.94,36.68,1.72
3,19089,1,0.0,,,,,,,,
4,19091,0,0.0,,,,,,,,
5,19093,0,0.0,,,,,,,,
6,19094,1,0.0,,,,,,,,
0,19098,4,86.06,-587.16,791.63,21.97,18.92,20.14,-1.75,25.68,-12.00
1,19110,5,-8.79,-989.87,172.36,92.77,13.43,-4.27,35.44,40.50,-4.21
2,19126,5,-122.8,-1002.44,57.86,40.28,3.05,0.61,26.39,35.74,1.84
3,19137,1,0.0,,,,,,,,
4,19139,0,0.0,,,,,,,,
5,19141,0,0.0,,,,,,,,
6,19142,1,0.0,,,,,,,,
0,19146,4,93.75,-588.5,791.5,20.14,19.53,16.48,-1.11,25.56,-12.52
1,19159,4,-4.76,-990.6,173.22,89.11,13.43,1.83,35.29,40.38,-4.65
2,19170,5,-119.38,-1000.49,61.52,32.35,-3.66,3.66,26.14,36.74,1.78
3,19182,0,0.0,,,,,,,,
4,19183,0,0.0,,,,,,,,
5,19185,0,0.0,,,,,,,,
6,19190,1,0.0,,,,,,,,
0,19194,4,92.29,-585.57,790.89,17.7,23.8,19.53,-0.98,25.42,-14.10
1,19207,4,-10.13,-995.0,171.88,90.94,14.65,-4.27,35.49,39.81,-3.45
2,19218,5,-125.73,-1000.61,62.26,31.13,-1.83,4.27,25.71,35.80,0.94
3,19230,0,0.0,,,,,,,,
4,19231,0,0.0,,,,,,,,
5,19233,0,0.0,,,,,,,,
6,19235,0,0.0,,,,,,,,
0,19238,5,89.97,-589.36,793.09,25.02,19.53,18.31,-0.79,25.52,-12.74
1,19251,4,-3.42,-991.09,173.1,89.72,12.82,-0.61,35.27,40.17,-3.80
2,19263,4,-115.97,-997.8,63.72,32.35,16.48,4.27,25.89,36.01,1.49
3,19278,0,0.0,,,,,,,,
4,19279,0,0.0,,,,,,,,
5,19281,0,0.0,,,,,,,,
6,19283,0,0.0,,,,,,,,
0,19287,4,93.38,-586.79,792.97,23.19,24.41,21.36,-0.98,25.67,-12.73
1,19299,4,-6.47,-989.99,174.07,89.72,13.43,-4.88,35.22,40.10,-3.78
2,19310,5,-123.78,-1000.49,60.55,32.96,10.38,1.83,26.48,36.30,1.57
3,19322,0,0.0,,,,,,,,
4,19324,0,0.0,,,,,,,,
5,19325,0,0.0,,,,,,,,
6,19328,0,0.0,,,,,,,,
0,19331,5,94.24,-587.77,793.95,23.19,21.36,20.75,-1.33,25.42,-13.13
1,19347,4,-6.59,-987.67,173.46,90.33,14.04,-2.44,35.25,40.34,-4.33
2,19359,4,-115.6,-1000.37,59.08,32.96,14.04,5.49,25.83,36.60,0.93
3,19371,0,0.0,,,,,,,,
4,19373,0,0.0,,,,,,,,
5,19374,0,0.0,,,,,,,,
6,19376,0,0.0,,,,,,,,
0,19379,5,96.8,-587.52,790.89,25.63,20.14,19.53,-1.05,25.66,-11.98
1,19391,4,-11.84,-989.38,173.22,92.16,11.6,-6.71,35.52,40.08,-4.50
2,19403,3,-121.46,-997.92,60.18,32.35,6.71,5.49,25.83,36.60,0.93
3,19418,0,0.0,,,,,,,,
4,19420,0,0.0,,,,,,,,
5,19421,0,0.0,,,,,,,,
6,19423,0,0.0,,,,,,,,
0,19426,5,95.7,-586.06,790.04,19.53,15.26,19.53,-1.04,25.31,-13.48
1,19438,4,-4.15,-993.29,172.49,90.33,11.6,-1.83,34.85,39.53,-4.49
2,19450,4,-118.16,-1003.17,56.64,32.96,7.93,7.32,25.93,36.46,1.89
3,19462,0,0.0,,,,,,,,
4,19464,0,0.0,,,,,,,,
5,19465,0,0.0,,,,,,,,
6,19467,0,0.0,,,,,,,,
0,19470,5,94.73,-587.04,791.02,24.41,18.31,21.97,-1.29,25.79,-12.10
1,19482,5,-7.69,-992.55,173.58,91.55,12.82,-9.16,34.74,40.47,-3.98
2,19507,4,-121.83,-997.56,60.3,30.52,3.66,7.32,26.67,36.51,2.03
3,19518,0,0.0,,,,,,,,
4,19520,0,0.0,,,,,,,,
5,19521,0,0.0,,,,,,,,
6,19523,0,0.0,,,,,,,,
0,19526,5,94.6,-587.65,792.11,19.53,16.48,20.14,-1.12,24.84,-12.81
1,19538,5,-10.5,-990.6,172.0,93.99,11.6,-3.05,35.06,40.61,-4.68
2,19551,3,-117.92,-1000.73,59.08,32.35,16.48,9.16,26.67,36.51,2.03
3,19561,0,0.0,,,,,,,,
4,19563,0,0.0,,,,,,,,
5,19564,1,0.0,,,,,,,,
6,19570,0,0.0,,,,,,,,
0,19573,5,95.46,-585.69,793.7,18.92,18.31,23.8,-1.39,25.16,-12.51
1,19586,5,-6.1,-990.23,172.85,89.72,10.38,-7.32,34.85,40.06,-3.76
2,19598,4,-116.09,-996.09,58.72,30.52,11.6,7.32,26.15,36.35,1.23
3,19609,0,0.0,,,,,,,,
4,19611,0,0.0,,,,,,,,
5,19612,1,0.0,,,,,,,,
6,19614,0,0.0,,,,,,,,
0,19618,4,96.68,-587.65,792.11,15.26,17.09,20.75,-1.14,25.87,-12.74
1,19630,5,-12.21,-988.77,172.12,94.6,11.6,-1.83,35.14,40.15,-4.77
2,19642,4,-114.01,-998.29,59.81,35.4,17.7,6.71,26.7,35.93,0.68
3,19657,0,0.0,,,,,,,,
4,19659,0,0.0,,,,,,,,
5,19661,0,0.0,,,,,,,,
6,19662,0,0.0,,,,,,,,
0,19666,5,96.56,-583.37,794.43,16.48,15.87,23.19,-1.44,25.39,-12.79
1,19678,4,-14.4,-994.14,171.14,89.72,10.99,-4.27,35.14,40.15,-4.77
2,19689,5,-120.73,-1000.61,54.44,29.3,6.1,5.49,26.54,35.96,1.55
3,19700,1,0.0,,,,,,,,
4,19702,0,0.0,,,,,,,,
5,19704,0,0.0,,,,,,,,
6,19705,0,0.0,,,,,,,,
0,19709,4,99.12,-583.25,793.33,15.87,18.92,21.36,-1.44,25.39,-12.79
1,19724,5,-6.35,-991.7,171.75,90.33,11.6,-0.61,34.67,40.25,-3.00
2,19736,4,-114.62,-1000.73,54.81,29.91,4.88,6.71,26.57,36.38,1.37
3,19747,1,0.0,,,,,,,,
4,19749,0,0.0,,,,,,,,
5,19751,0,0.0,,,,,,,,
6,19752,0,0.0,,,,,,,,
0,19757,4,95.09,-584.35,795.29,23.8,18.31,18.92,-1.04,25.74,-12.12
1,19769,4,-8.42,-990.36,171.14,90.33,11.6,-4.27,34.22,40.19,-3.99
2,19780,5,-114.99,-997.8,57.13,31.74,16.48,5.49,26.09,36.50,1.17
3,19792,0,0.0,,,,,,,,
4,19798,0,0.0,,,,,,,,
5,19800,0,0.0,,,,,,,,
6,19801,0,0.0,,,,,,,,
0,19805,4,100.1,-585.57,790.53,20.75,20.14,21.36,-1.45,24.90,-12.24
1,19817,4,-10.01,-987.43,172.61,90.33,12.82,-0.61,35.24,40.25,-3.76
2,19828,5,-114.01,-999.39,58.84,31.74,6.1,0.61,26.65,37.30,2.38
3,19841,0,0.0,,,,,,,,
4,19842,0,0.0,,,,,,,,
5,19844,0,0.0,,,,,,,,
6,19846,0,0.0,,,,,,,,
0,19849,4,99.61,-583.74,792.6,18.92,16.48,18.31,-1.17,25.01,-12.22
1,19861,4,-9.16,-990.36,171.26,89.72,13.43,-1.83,34.8,40.48,-3.82
2,19876,5,-112.43,-1000.37,51.51,31.13,6.71,1.83,26.25,36.60,0.89
3,19889,0,0.0,,,,,,,,
4,19890,0,0.0,,,,,,,,
5,19892,0,0.0,,,,,,,,
6,19893,1,0.0,,,,,,,,
0,19897,4,98.27,-585.21,791.02,20.14,15.26,18.92,-1.56,24.94,-12.30
1,19909,4,-10.5,-994.02,170.04,93.99,10.99,-5.49,34.74,39.88,-4.32
2,19920,6,-125.37,-1000.49,51.64,26.86,-4.88,0.0,26.4,36.52,1.00
3,19933,0,0.0,,,,,,,,
4,19934,0,0.0,,,,,,,,
5,19936,0,0.0,,,,,,,,
6,19938,0,0.0,,,,,,,,
0,19945,4,97.9,-583.01,796.02,16.48,11.6,18.31,-1.59,24.90,-13.11
1,19957,4,-10.86,-992.8,172.24,90.33,12.21,0.61,34.7,40.23,-3.92
2,19969,5,-112.79,-1000.61,56.52,25.02,4.88,3.05,25.92,36.62,0.96
3,19981,0,0.0,,,,,,,,
4,19982,0,0.0,,,,,,,,
5,19984,0,0.0,,,,,,,,
6,19986,0,0.0,,,,,,,,
0,19989,4,97.29,-582.52,794.68,20.14,15.87,20.75,-0.94,25.11,-11.91
1,20001,4,-10.86,-991.58,170.78,87.89,12.21,-3.05,35.1,40.11,-4.42
2,20014,4,-117.19,-998.78,53.47,25.02,-1.22,0.0,26.5,36.43,0.84
3,20030,0,0.0,,,,,,,,
4,20031,0,0.0,,,,,,,,
5,20033,0,0.0,,,,,,,,
6,20035,0,0.0,,,,,,,,
0,20038,4,99.0,-582.76,793.09,20.14,16.48,18.92,-0.59,25.34,-13.09
1,20050,5,-10.74,-989.99,171.51,90.33,12.82,-3.66,34.56,39.60,-3.83
2,20063,3,-115.36,-999.63,55.54,25.63,-0.61,1.22,26.5,36.43,0.84
3,20073,0,0.0,,,,,,,,
4,20074,1,0.0,,,,,,,,
5,20076,0,0.0,,,,,,,,
6,20078,0,0.0,,,,,,,,
0,20081,5,99.61,-583.62,794.56,20.14,15.26,20.75,-1.4,25.59,-12.67
1,20098,4,-12.94,-996.83,170.17,89.72,14.04,-4.27,34.83,40.17,-5.04
2,20109,5,-117.31,-1002.81,53.47,24.41,-1.22,-0.61,26.07,36.56,1.43
3,20121,0,0.0,,,,,,,,
4,20122,1,0.0,,,,,,,,
5,20124,0,0.0,,,,,,,,
6,20126,0,0.0,,,,,,,,
0,20129,5,97.9,-582.89,794.31,20.14,17.09,18.31,-1.16,25.57,-13.21
1,20142,4,-7.08,-989.5,172.73,88.5,11.6,-3.05,34.92,39.69,-4.24
2,20154,4,-113.16,-996.95,55.79,25.02,2.44,2.44,25.93,36.79,1.54
3,20165,0,0.0,,,,,,,,
4,20170,1,0.0,,,,,,,,
5,20172,0,0.0,,,,,,,,
6,20174,0,0.0,,,,,,,,
0,20177,6,100.83,-583.13,796.02,19.53,14.04,18.31,-0.78,25.33,-12.95
1,20190,4,-10.99,-992.92,171.63,87.89,12.21,0.0,35.33,39.58,-3.58
2,20202,4,-114.38,-1000.49,56.76,24.41,5.49,4.27,25.76,36.41,1.43
3,20213,0,0.0,,,,,,,,
4,20215,0,0.0,,,,,,,,
5,20216,0,0.0,,,,,,,,
6,20218,0,0.0,,,,,,,,
0,20221,6,97.9,-582.28,790.77,21.36,16.48,19.53,-0.83,25.42,-12.87
1,20234,3,-9.77,-989.75,173.1,90.33,11.6,-4.27,35.33,39.58,-3.58
2,20249,4,-117.43,-997.68,55.18,25.02,-9.16,1.83,25.57,36.17,1.33
3,20260,0,0.0,,,,,,,,
4,20262,0,0.0,,,,,,,,
5,20263,0,0.0,,,,,,,,
6,20265,0,0.0,,,,,,,,
0,20269,5,98.39,-583.13,794.43,21.36,15.87,18.92,-0.26,25.55,-13.75
1,20281,5,-11.72,-991.82,170.78,92.16,11.6,-1.22,35.23,40.76,-5.35
2,20293,4,-114.75,-1000.73,53.1,26.25,5.49,2.44,25.96,36.24,2.26
3,20304,0,0.0,,,,,,,,
4,20306,0,0.0,,,,,,,,
5,20307,1,0.0,,,,,,,,
6,20310,0,0.0,,,,,,,,
0,20317,5,97.66,-581.79,793.7,21.36,14.04,19.53,-0.62,24.95,-12.56
1,20329,5,-9.64,-994.02,171.26,90.33,13.43,-1.83,34.96,40.14,-5.27
2,20341,4,-116.94,-1000.49,53.59,23.19,-1.83,1.83,26.05,36.29,0.99
3,20353,0,0.0,,,,,,,,
4,20355,0,0.0,,,,,,,,
5,20357,0,0.0,,,,,,,,
6,20358,0,0.0,,,,,,,,
0,20362,4,97.41,-582.64,794.07,20.75,14.65,20.14,-0.79,25.39,-13.26
1,20373,5,-9.77,-990.48,172.24,89.72,10.99,-2.44,34.47,40.65,-4.36
2,20385,4,-115.48,-1000.49,56.52,25.02,5.49,0.61,26.01,36.29,0.94
3,20401,0,0.0,,,,,,,,
4,20403,0,0.0,,,,,,,,
5,20404,1,0.0,,,,,,,,
6,20406,0,0.0,,,,,,,,
0,20410,4,99.85,-583.01,794.68,20.14,13.43,18.92,-0.21,25.12,-13.54
1,20421,5,-11.72,-992.07,171.63,89.11,12.21,0.0,34.84,40.72,-4.98
2,20433,5,-117.07,-1000.49,54.69,25.63,0.0,1.83,25.89,36.46,0.55
3,20445,0,0.0,,,,,,,,
4,20447,0,0.0,,,,,,,,
5,20449,0,0.0,,,,,,,,
6,20450,0,0.0,,,,,,,,
0,20454,4,96.92,-583.25,793.7,17.7,14.65,20.14,-0.43,24.99,-13.10
1,20469,5,-9.03,-990.97,171.88,90.94,12.21,0.0,35.77,39.92,-4.30
2,20482,4,-114.87,-1000.12,55.3,26.86,1.22,0.0,25.9,35.73,1.21
3,20493,0,0.0,,,,,,,,
4,20495,0,0.0,,,,,,,,
5,20496,1,0.0,,,,,,,,
6,20498,0,0.0,,,,,,,,
0,20502,4,97.05,-582.03,794.31,20.75,12.21,20.14,-0.57,25.52,-13.29
1,20513,5,-8.54,-990.36,170.78,92.16,10.99,-4.88,35.58,40.15,-4.83
2,20526,4,-115.23,-997.44,55.18,28.69,-2.44,0.0,25.87,35.99,1.89
3,20537,0,0.0,,,,,,,,
4,20539,0,0.0,,,,,,,,
5,20544,1,0.0,,,,,,,,
6,20546,0,0.0,,,,,,,,
0,20550,4,99.61,-581.42,795.9,15.87,12.82,21.36,-0.4,24.85,-13.49
1,20561,6,-14.89,-992.8,170.9,96.44,12.21,0.61,35.35,40.14,-4.74
2,20574,4,-119.26,-1000.61,54.81,33.57,-4.88,0.61,26.07,36.12,1.35
3,20585,0,0.0,,,,,,,,
4,20587,0,0.0,,,,,,,,
5,20589,0,0.0,,,,,,,,
6,20590,0,0.0,,,,,,,,
0,20594,3,94.48,-580.57,795.9,15.87,15.26,19.53,-0.4,24.85,-13.49
1,20604,6,-7.32,-990.6,169.92,95.21,11.6,-0.61,35.23,40.15,-4.25
2,20621,4,-114.75,-1000.49,50.66,31.74,2.44,-1.83,25.99,36.66,2.37
3,20632,1,0.0,,,,,,,,
4,20634,0,0.0,,,,,,,,
5,20636,0,0.0,,,,,,,,
6,20637,0,0.0,,,,,,,,
0,20641,4,98.14,-580.44,794.43,18.92,14.65,19.53,-0.94,25.18,-12.83
1,20654,4,-9.64,-990.11,170.17,95.83,11.6,-0.61,35.1,40.21,-3.53
2,20665,4,-116.09,-999.39,53.83,32.35,4.88,1.22,25.99,36.66,2.37
3,20675,1,0.0,,,,,,,,
4,20677,0,0.0,,,,,,,,
5,20679,0,0.0,,,,,,,,
6,20680,1,0.0,,,,,,,,
0,20684,4,97.53,-579.22,795.29,18.31,14.65,18.92,-1.09,25.26,-12.06
1,20700,5,-9.64,-990.48,169.43,91.55,13.43,0.0,35.02,39.86,-3.49
2,20712,4,-116.94,-1000.61,51.64,32.35,1.22,-4.27,26.01,36.60,1.99
3,20723,0,0.0,,,,,,,,
4,20725,0,0.0,,,,,,,,
5,20727,0,0.0,,,,,,,,
6,20728,0,0.0,,,,,,,,
0,20732,5,95.09,-579.83,797.12,18.92,15.87,20.75,-0.62,25.84,-12.95
1,20744,4,-9.16,-992.43,169.56,93.38,10.38,-4.88,35.02,39.86,-3.49
2,20755,5,-117.68,-1000.49,48.46,31.74,0.61,-7.93,25.65,36.27,1.05
3,20770,0,0.0,,,,,,,,
4,20772,0,0.0,,,,,,,,
5,20774,0,0.0,,,,,,,,
6,20775,0,0.0,,,,,,,,
0,20780,4,100.46,-578.74,796.51,19.53,16.48,21.36,-1.16,25.05,-12.44
1,20791,5,-10.5,-991.21,168.95,87.28,10.99,-2.44,34.66,40.05,-5.29
2,20803,5,-120.48,-1000.49,48.1,28.69,-4.88,-4.88,25.79,36.74,0.85
3,20815,0,0.0,,,,,,,,
4,20816,0,0.0,,,,,,,,
5,20818,0,0.0,,,,,,,,
6,20820,0,0.0,,,,,,,,
0,20824,4,97.05,-578.49,795.78,20.75,13.43,20.75,-0.85,24.91,-12.88
1,20840,4,-10.86,-989.87,169.07,93.38,11.6,-1.83,34.35,40.47,-4.64
2,20851,5,-116.94,-997.56,51.03,29.3,4.27,-4.88,26.21,36.52,2.32
3,20864,0,0.0,,,,,,,,
4,20865,0,0.0,,,,,,,,
5,20867,0,0.0,,,,,,,,
6,20869,0,0.0,,,,,,,,
0,20872,4,97.9,-579.35,796.14,19.53,14.65,21.97,-0.9,24.88,-13.46
1,20884,4,-10.38,-992.07,168.33,95.83,9.77,-4.88,34.72,40.25,-3.72
2,20895,5,-122.31,-1000.61,48.83,28.08,-3.05,-3.66,25.84,36.35,2.28
3,20908,0,0.0,,,,,,,,
4,20909,1,0.0,,,,,,,,
5,20915,0,0.0,,,,,,,,
6,20917,0,0.0,,,,,,,,
0,20920,4,97.41,-579.1,798.46,18.92,17.09,20.75,-0.95,24.58,-12.82
1,20932,4,-12.33,-990.6,168.46,92.77,13.43,-3.66,34.75,40.25,-3.78
2,20943,5,-122.31,-999.51,50.9,30.52,1.22,-4.88,25.96,36.06,1.82
3,20956,0,0.0,,,,,,,,
4,20957,1,0.0,,,,,,,,
5,20959,0,0.0,,,,,,,,
6,20961,0,0.0,,,,,,,,
0,20964,5,99.37,-578.74,797.61,20.75,14.65,21.97,-1.12,25.11,-12.99
1,20976,4,-13.55,-993.16,168.33,92.77,12.21,-4.88,34.84,40.21,-3.64
2,20992,5,-119.51,-1001.34,45.17,28.08,-5.49,-1.83,25.85,36.43,1.34
3,21004,0,0.0,,,,,,,,
4,21006,0,0.0,,,,,,,,
5,21007,0,0.0,,,,,,,,
6,21009,0,0.0,,,,,,,,
0,21012,5,97.17,-579.22,798.46,23.8,15.87,21.97,-1.4,24.73,-12.52
1,21024,4,-13.18,-992.19,168.33,89.72,12.21,-4.27,34.95,40.50,-4.05
2,21037,4,-126.95,-999.39,49.32,25.63,-2.44,-1.83,25.15,36.29,1.27
3,21048,0,0.0,,,,,,,,
4,21050,0,0.0,,,,,,,,
5,21051,1,0.0,,,,,,,,
6,21053,0,0.0,,,,,,,,
0,21056,5,98.27,-578.37,795.65,22.58,15.26,20.14,-0.95,24.61,-12.95
1,21072,4,-11.11,-991.09,167.97,90.33,9.77,-2.44,34.47,40.47,-3.33
2,21085,4,-117.55,-999.51,49.56,24.41,2.44,0.61,26.09,36.04,0.78
3,21096,0,0.0,,,,,,,,
4,21098,0,0.0,,,,,,,,
5,21099,0,0.0,,,,,,,,
6,21101,0,0.0,,,,,,,,
0,21104,5,99.49,-577.39,798.1,24.41,14.04,20.75,-1.17,24.79,-12.78
1,21116,6,-11.72,-993.41,168.09,89.11,12.21,-1.22,34.73,40.17,-4.65
2,21129,4,-121.83,-1000.49,49.68,25.02,-1.22,0.61,26.42,36.38,0.98
3,21144,0,0.0,,,,,,,,
4,21146,0,0.0,,,,,,,,
5,21147,1,0.0,,,,,,,,
6,21149,0,0.0,,,,,,,,
0,21152,5,98.51,-579.71,795.53,23.19,17.09,20.14,-1.07,24.71,-11.99
1,21165,5,-12.82,-991.94,168.46,91.55,13.43,-3.66,35.03,40.66,-4.37
2,21177,4,-121.83,-1000.61,48.22,26.86,1.22,0.0,26.32,36.39,2.03
3,21188,0,0.0,,,,,,,,
4,21190,0,0.0,,,,,,,,
5,21192,0,0.0,,,,,,,,
6,21193,0,0.0,,,,,,,,
0,21197,4,99.49,-577.39,799.68,22.58,16.48,20.14,-1.04,25.11,-12.94
1,21209,5,-12.94,-992.31,167.97,89.11,13.43,-0.61,34.52,40.32,-3.44
2,21225,3,-121.7,-999.39,50.66,27.47,-0.61,0.61,26.32,36.39,2.03
3,21235,0,0.0,,,,,,,,
4,21237,0,0.0,,,,,,,,
5,21239,0,0.0,,,,,,,,
6,21240,0,0.0,,,,,,,,
0,21244,5,96.44,-577.88,795.04,26.25,17.09,21.97,-0.98,25.04,-13.71
1,21256,5,-11.84,-993.16,167.48,92.16,12.21,-2.44,34.96,40.06,-3.21
2,21268,5,-119.02,-999.76,47.12,28.69,6.1,-0.61,25.68,36.73,2.31
3,21280,0,0.0,,,,,,,,
4,21281,0,0.0,,,,,,,,
5,21287,0,0.0,,,,,,,,
6,21288,0,0.0,,,,,,,,
0,21293,4,102.78,-578.25,795.65,20.75,15.26,20.75,-0.84,25.11,-12.76
1,21304,5,-11.6,-991.82,166.99,90.94,12.82,2.44,34.72,40.55,-4.16
2,21316,5,-120.73,-1000.85,46.26,27.47,1.22,1.83,25.6,36.77,2.51
3,21327,1,0.0,,,,,,,,
4,21329,0,0.0,,,,,,,,
5,21331,0,0.0,,,,,,,,
6,21332,2,0.0,,,,,,,,
0,21337,4,97.17,-579.47,796.02,25.02,15.87,18.92,-0.84,25.27,-13.60
1,21349,3,-11.96,-991.09,167.85,91.55,10.99,-1.83,34.72,40.55,-4.16
2,21363,4,-125.49,-998.29,47.85,28.69,0.0,-2.44,25.59,36.15,1.77
3,21374,0,0.0,,,,,,,,
4,21377,0,0.0,,,,,,,,
5,21379,0,0.0,,,,,,,,
6,21380,0,0.0,,,,,,,,
0,21384,3,100.71,-577.76,796.14,21.97,14.65,20.75,-0.84,25.27,-13.60
1,21394,5,-12.45,-995.61,166.02,94.6,12.82,-0.61,35.06,40.26,-4.33
2,21406,5,-122.56,-1000.49,46.14,25.63,3.66,1.22,25.74,35.94,0.65
3,21419,0,0.0,,,,,,,,
4,21420,0,0.0,,,,,,,,
5,21422,0,0.0,,,,,,,,
6,21424,0,0.0,,,,,,,,
0,21427,4,98.02,-578.74,797.49,21.36,15.26,20.14,-0.82,25.05,-12.17
1,21442,5,-13.31,-989.87,168.58,92.16,14.04,-3.05,35.3,40.06,-3.63
2,21454,5,-125.49,-997.19,50.05,30.52,3.05,-1.22,25.99,36.40,1.26
3,21467,0,0.0,,,,,,,,
4,21468,0,0.0,,,,,,,,
5,21470,0,0.0,,,,,,,,
6,21471,1,0.0,,,,,,,,
0,21475,4,98.75,-577.76,797.0,18.92,14.65,21.36,-0.79,24.45,-12.35
1,21487,4,-12.94,-992.19,168.09,92.16,13.43,-1.22,34.95,40.10,-5.30
2,21498,6,-120.61,-1000.61,45.53,31.74,3.05,-1.22,25.68,36.35,2.00
3,21515,0,0.0,,,,,,,,
4,21516,0,0.0,,,,,,,,
5,21518,0,0.0,,,,,,,,
6,21520,0,0.0,,,,,,,,
0,21523,4,98.75,-577.27,795.78,21.36,16.48,21.97,-0.4,25.26,-14.42
1,21535,4,-11.72,-992.43,168.46,90.94,9.77,-4.88,35.01,40.22,-4.52
2,21547,5,-118.65,-1000.49,43.46,29.91,0.0,-2.44,25.72,36.27,1.84
3,21559,0,0.0,,,,,,,,
4,21560,1,0.0,,,,,,,,
5,21562,0,0.0,,,,,,,,
6,21564,0,0.0,,,,,,,,
0,21567,5,99.49,-577.64,797.73,21.97,15.87,21.97,-0.21,24.93,-13.20
1,21579,4,-11.6,-990.36,166.63,92.16,9.77,-1.22,35.21,39.94,-3.86
2,21595,5,-124.02,-998.05,48.83,26.86,1.83,0.0,25.22,36.22,1.50
3,21607,0,0.0,,,,,,,,
4,21608,0,0.0,,,,,,,,
5,21610,0,0.0,,,,,,,,
6,21612,0,0.0,,,,,,,,
0,21615,4,99.49,-578.37,798.34,18.92,15.26,23.8,0.1,24.88,-12.92
1,21627,5,-14.77,-993.9,166.02,93.99,11.6,-5.49,35.41,40.15,-4.80
2,21639,5,-124.51,-1000.61,41.63,28.08,-2.44,-1.22,25.94,35.33,0.85
3,21651,0,0.0,,,,,,,,
4,21653,0,0.0,,,,,,,,
5,21654,0,0.0,,,,,,,,
6,21660,0,0.0,,,,,,,,
0,21663,4,99.0,-577.27,796.39,17.09,14.65,20.75,0.2,25.42,-12.40
1,21676,4,-14.65,-989.99,167.97,90.94,13.43,-3.05,35.16,39.81,-4.71
2,21688,4,-120.97,-998.54,46.39,27.47,8.54,-1.22,25.73,36.30,2.14
3,21699,0,0.0,,,,,,,,
4,21700,1,0.0,,,,,,,,
5,21702,0,0.0,,,,,,,,
6,21704,0,0.0,,,,,,,,
0,21724,4,99.24,-575.44,797.24,17.7,14.65,20.14,-0.24,24.95,-11.90
1,21738,4,-12.7,-994.87,166.02,93.38,13.43,-4.27,35.3,39.51,-4.14
2,21750,4,-125.0,-1000.61,41.02,23.8,-5.49,-2.44,26.06,36.35,1.68
3,21765,0,0.0,,,,,,,,
4,21766,1,0.0,,,,,,,,
5,21768,0,0.0,,,,,,,,
6,21770,0,0.0,,,,,,,,
0,21773,5,101.2,-576.42,798.46,19.53,17.7,22.58,-1.06,24.80,-13.26
1,21785,4,-13.31,-993.04,166.87,84.84,15.87,-2.44,35.38,40.01,-4.72
2,21797,4,-126.83,-998.9,45.53,25.63,-3.66,-3.05,24.87,36.58,2.23
3,21809,0,0.0,,,,,,,,
4,21811,0,0.0,,,,,,,,
5,21812,0,0.0,,,,,,,,
6,21814,0,0.0,,,,,,,,
0,21817,5,100.34,-576.78,797.85,19.53,15.87,18.31,-1.07,24.50,-12.85
1,21833,4,-13.31,-991.82,167.24,90.94,15.26,0.0,35.33,39.73,-4.94
2,21846,4,-125.12,-999.88,45.9,25.02,0.0,0.61,25.23,36.85,1.70
3,21857,0,0.0,,,,,,,,
4,21859,0,0.0,,,,,,,,
5,21860,0,0.0,,,,,,,,
6,21862,0,0.0,,,,,,,,
0,21865,5,107.91,-576.17,796.75,18.92,12.21,17.09,-1.11,24.41,-12.72
1,21877,4,-20.75,-992.8,166.5,90.33,14.04,155.64,35.24,40.45,-4.38
2,21890,4,-129.15,-1000.37,48.34,26.25,-15.87,-0.61,25.27,36.89,1.22
3,21905,0,0.0,,,,,,,,
4,21907,0,0.0,,,,,,,,
5,21908,0,0.0,,,,,,,,
6,21910,0,0.0,,,,,,,,
0,21913,5,96.68,-574.1,799.68,17.7,8.54,13.43,-0.92,25.38,-13.53
1,21925,6,-9.4,-991.7,169.56,87.89,14.04,4.88,34.41,40.27,-5.10
2,21938,4,-121.46,-997.68,44.31,28.69,-5.49,-1.83,25.5,36.51,1.53
3,21949,0,0.0,,,,,,,,
4,21951,0,0.0,,,,,,,,
5,21952,1,0.0,,,,,,,,
6,21954,0,0.0,,,,,,,,
0,21957,5,97.29,-575.68,799.8,19.53,12.21,17.09,-0.73,24.61,-13.27
1,21969,6,-11.6,-992.8,167.48,88.5,14.04,0.61,35.1,40.73,-4.25
2,21986,4,-127.08,-1000.49,43.7,26.25,-8.54,-1.22,24.79,36.17,1.54
3,21997,0,0.0,,,,,,,,
4,21999,0,0.0,,,,,,,,
5,22001,0,0.0,,,,,,,,
6,22002,0,0.0,,,,,,,,
0,22006,4,98.51,-576.66,799.56,22.58,15.26,20.14,-1.4,24.69,-13.17
1,22018,5,-14.89,-992.68,168.33,87.89,14.04,-3.66,34.83,40.33,-3.76
2,22030,4,-127.2,-999.63,44.92,23.8,-4.88,-1.22,24.79,36.17,1.54
3,22040,1,0.0,,,,,,,,
4,22042,0,0.0,,,,,,,,
5,22044,0,0.0,,,,,,,,
6,22049,0,0.0,,,,,,,,
0,22053,4,97.78,-574.22,798.71,21.36,15.26,21.97,-1.05,25.00,-12.62
1,22065,5,-13.18,-990.6,167.36,90.33,12.82,-3.05,35.08,40.30,-3.41
2,22077,5,-126.95,-997.68,44.31,24.41,6.71,-1.22,26.09,36.82,1.70
3,22088,1,0.0,,,,,,,,
4,22090,0,0.0,,,,,,,,
5,22092,0,0.0,,,,,,,,
6,22093,1,0.0,,,,,,,,
0,22097,5,98.39,-575.2,798.71,18.92,12.82,20.75,-0.84,24.57,-12.52
1,22110,3,-15.14,-992.68,168.33,89.72,12.82,-4.27,35.08,40.30,-3.41
2,22120,5,-128.78,-1000.24,45.78,24.41,0.0,-1.22,25.45,36.25,2.20
3,22135,1,0.0,,,,,,,,
4,22137,0,0.0,,,,,,,,
5,22139,0,0.0,,,,,,,,
6,22140,1,0.0,,,,,,,,
0,22145,4,96.68,-575.2,798.71,20.14,13.43,21.97,-1.46,25.06,-12.99
1,22157,4,-14.65,-991.94,168.46,93.38,12.82,-3.05,34.78,39.66,-4.14
2,22168,5,-129.15,-998.78,44.68,27.47,0.61,-1.83,25.54,36.04,2.23
3,22180,0,0.0,,,,,,,,
4,22181,0,0.0,,,,,,,,
5,22183,0,0.0,,,,,,,,
6,22185,0,0.0,,,,,,,,
0,22189,4,98.88,-574.83,798.34,18.31,15.87,18.92,-1.04,24.27,-12.62
1,22205,4,-11.96,-991.94,167.36,91.55,11.6,-1.83,34.92,40.11,-3.94
2,22216,5,-126.59,-1000.12,44.43,26.86,-3.66,-1.22,25.16,35.64,2.12
3,22228,0,0.0,,,,,,,,
4,22230,1,0.0,,,,,,,,
5,22232,0,0.0,,,,,,,,
6,22234,0,0.0,,,,,,,,
0,22237,5,96.44,-574.1,799.32,20.14,15.26,21.97,-0.35,24.57,-13.42
1,22249,4,-15.26,-992.55,166.87,93.38,12.82,-4.27,34.9,40.23,-4.59
2,22261,4,-130.62,-1000.37,39.31,27.47,-4.88,-1.83,25.23,36.04,1.45
3,22277,0,0.0,,,,,,,,
4,22279,0,0.0,,,,,,,,
5,22280,0,0.0,,,,,,,,
6,22282,0,0.0,,,,,,,,
0,22285,5,99.0,-573.49,799.68,19.53,14.04,18.92,-1.26,24.41,-13.00
1,22297,4,-13.67,-992.55,167.24,89.11,13.43,3.66,34.84,40.15,-3.86
2,22309,4,-126.1,-1000.0,45.65,23.19,4.27,1.83,25.18,36.39,0.68
3,22321,0,0.0,,,,,,,,
4,22323,0,0.0,,,,,,,,
5,22324,0,0.0,,,,,,,,
6,22326,0,0.0,,,,,,,,
0,22329,5,94.36,-574.95,799.8,19.53,14.04,18.31,-0.87,24.43,-13.33
1,22341,5,-11.47,-989.99,166.87,88.5,12.82,-0.61,34.52,40.26,-4.38
2,22358,4,-125.24,-1000.49,42.6,25.02,-4.27,0.0,25.4,35.96,1.94
3,22369,0,0.0,,,,,,,,
4,22371,0,0.0,,,,,,,,
5,22372,0,0.0,,,,,,,,
6,22374,0,0.0,,,,,,,,
0,22377,5,100.22,-575.68,799.8,20.14,12.21,17.7,-0.61,24.87,-13.17
1,22389,5,-16.6,-991.33,166.75,91.55,14.65,1.22,34.56,40.27,-3.71
2,22402,4,-127.44,-1000.24,43.58,26.25,-7.32,0.61,25.52,36.29,1.17
3,22413,0,0.0,,,,,,,,
4,22415,0,0.0,,,,,,,,
5,22417,0,0.0,,,,,,,,
6,22422,0,0.0,,,,,,,,
0,22425,5,95.34,-572.75,801.15,20.14,11.6,17.7,-1.28,24.49,-12.34
1,22437,6,-10.38,-996.09,166.14,87.28,12.82,0.61,34.89,40.25,-3.64
2,22450,4,-127.32,-1000.49,44.43,23.8,-6.71,1.22,25.18,36.21,1.15
3,22461,0,0.0,,,,,,,,
4,22463,0,0.0,,,,,,,,
5,22465,0,0.0,,,,,,,,
6,22466,0,0.0,,,,,,,,
0,22470,4,98.51,-575.2,800.17,19.53,8.54,16.48,-0.76,25.18,-12.99
1,22481,6,-13.06,-989.38,168.46,86.06,14.65,2.44,34.85,40.36,-3.05
2,22494,5,-129.15,-998.05,43.09,26.25,-14.65,0.61,25.85,36.56,1.26
3,22509,0,0.0,,,,,,,,
4,22511,0,0.0,,,,,,,,
5,22512,1,0.0,,,,,,,,
6,22514,0,0.0,,,,,,,,
0,22518,4,102.42,-575.2,801.03,14.65,4.88,11.6,-0.46,24.51,-12.06
1,22530,5,-12.21,-992.92,168.7,87.89,15.87,10.38,35.31,39.61,-2.78
2,22542,3,-125.24,-1000.49,44.56,26.86,-18.92,0.61,25.85,36.56,1.26
3,22552,0,0.0,,,,,,,,
4,22554,0,0.0,,,,,,,,
5,22556,0,0.0,,,,,,,,
6,22557,0,0.0,,,,,,,,
0,22561,3,93.51,-571.17,801.64,15.26,2.44,10.99,-0.46,24.51,-12.06
1,22576,5,-12.21,-994.02,167.48,87.89,15.26,6.1,35.25,40.01,-3.47
2,22588,4,-127.08,-1000.37,40.28,23.8,-21.36,1.22,25.98,36.43,2.19
3,22599,0,0.0,,,,,,,,
4,22601,0,0.0,,,,,,,,
5,22603,0,0.0,,,,,,,,
6,22604,0,0.0,,,,,,,,
0,22608,4,88.75,-570.8,801.88,20.14,9.16,16.48,-0.55,24.88,-12.63
1,22620,4,-9.77,-993.04,168.58,86.67,12.82,0.0,35.25,40.01,-3.47
2,22631,4,-131.35,-998.66,44.92,19.53,-9.77,3.66,25.73,36.15,1.94
3,22646,0,0.0,,,,,,,,
4,22648,0,0.0,,,,,,,,
5,22649,1,0.0,,,,,,,,
6,22651,0,0.0,,,,,,,,
0,22654,6,92.53,-572.75,803.47,21.97,13.43,19.53,-0.76,24.68,-12.61
1,22667,5,-12.7,-994.38,169.19,90.33,14.65,-3.05,34.63,39.82,-3.54
2,22679,4,-126.83,-998.17,43.95,23.8,-11.6,-0.61,25.92,36.23,1.95
3,22690,1,0.0,,,,,,,,
4,22692,0,0.0,,,,,,,,
5,22694,0,0.0,,,,,,,,
6,22695,0,0.0,,,,,,,,
0,22700,4,89.97,-571.53,802.73,18.92,13.43,17.09,-0.48,24.46,-12.65
1,22712,4,-9.03,-991.58,169.07,91.55,13.43,-0.61,35.1,40.00,-3.66
2,22727,4,-131.35,-999.63,45.04,26.25,0.0,6.1,25.13,36.07,1.43
3,22738,0,0.0,,,,,,,,
4,22740,0,0.0,,,,,,,,
5,22743,0,0.0,,,,,,,,
6,22744,0,0.0,,,,,,,,
0,22748,4,89.72,-572.27,802.25,23.8,13.43,20.75,-0.98,24.93,-12.61
1,22759,5,-9.77,-993.41,167.36,91.55,11.6,-1.83,35.06,39.66,-3.86
2,22771,5,-125.98,-1000.24,43.46,26.25,-1.83,0.61,25.31,36.29,2.49
3,22784,0,0.0,,,,,,,,
4,22785,0,0.0,,,,,,,,
5,22787,0,0.0,,,,,,,,
6,22792,0,0.0,,,,,,,,
0,22796,4,93.26,-572.39,803.1,22.58,18.92,20.75,-1.26,24.22,-12.65
1,22808,4,-9.52,-992.68,168.58,87.89,11.6,-3.66,35.96,39.93,-3.58
2,22819,5,-131.84,-998.9,43.09,26.25,4.27,4.88,25.01,36.95,1.42
3,22832,0,0.0,,,,,,,,
4,22833,0,0.0,,,,,,,,
5,22835,0,0.0,,,,,,,,
6,22836,1,0.0,,,,,,,,
0,22840,4,91.92,-573.0,801.39,22.58,13.43,19.53,-0.92,24.10,-12.23
1,22852,4,-10.38,-991.33,168.46,89.72,13.43,2.44,35.31,40.54,-3.82
2,22863,5,-121.22,-998.9,42.36,26.86,1.83,5.49,25.84,36.43,1.26
3,22879,1,0.0,,,,,,,,
4,22881,0,0.0,,,,,,,,
5,22883,0,0.0,,,,,,,,
6,22884,1,0.0,,,,,,,,
0,22888,4,92.41,-571.78,802.37,23.8,14.65,18.31,-1.16,24.30,-12.49
1,22900,4,-7.2,-989.26,169.56,90.94,12.21,-0.61,35.57,40.20,-3.42
2,22912,5,-128.17,-1000.49,44.68,26.86,1.22,4.27,25.28,36.56,1.67
3,22924,0,0.0,,,,,,,,
4,22925,0,0.0,,,,,,,,
5,22927,0,0.0,,,,,,,,
6,22929,0,0.0,,,,,,,,
0,22932,4,91.8,-571.78,802.12,26.25,19.53,20.75,-1.0,24.28,-12.33
1,22948,4,-11.72,-992.55,167.6,92.77,14.04,-4.27,35.22,40.33,-3.71
2,22960,5,-127.2,-997.31,45.53,29.3,5.49,6.1,24.88,36.05,1.87
3,22972,0,0.0,,,,,,,,
4,22973,0,0.0,,,,,,,,
5,22975,0,0.0,,,,,,,,
6,22977,0,0.0,,,,,,,,
0,22980,4,90.09,-574.34,801.88,22.58,16.48,20.14,-0.83,23.97,-13.23
1,22992,4,-9.28,-991.21,168.7,93.99,12.82,0.61,35.5,40.21,-4.36
2,23004,5,-124.63,-1000.49,38.57,32.35,12.21,5.49,25.72,36.84,1.66
3,23016,0,0.0,,,,,,,,
4,23021,0,0.0,,,,,,,,
5,23023,0,0.0,,,,,,,,
6,23025,0,0.0,,,,,,,,
0,23028,4,89.84,-573.49,802.98,23.8,16.48,17.7,-1.01,24.16,-13.12
1,23041,4,-7.93,-990.84,168.09,93.38,11.6,1.83,34.97,40.28,-3.67
2,23052,5,-127.08,-1000.49,42.85,34.18,7.93,4.88,25.06,36.65,2.60
3,23064,0,0.0,,,,,,,,
4,23065,1,0.0,,,,,,,,
5,23067,0,0.0,,,,,,,,
6,23069,0,0.0,,,,,,,,
0,23072,5,90.94,-572.88,801.39,25.63,15.87,20.14,-1.15,23.88,-12.19
1,23085,4,-8.42,-989.87,167.11,96.44,12.21,-0.61,34.81,40.31,-4.47
2,23100,5,-126.34,-997.44,42.36,34.18,6.71,3.05,25.38,37.28,2.50
3,23112,0,0.0,,,,,,,,
4,23113,0,0.0,,,,,,,,
5,23115,0,0.0,,,,,,,,
6,23117,0,0.0,,,,,,,,
0,23120,4,94.48,-573.49,801.39,21.36,15.87,18.31,-0.99,24.44,-12.70
1,23133,4,-10.5,-992.92,166.63,95.21,13.43,1.83,35.47,40.48,-3.53
2,23144,4,-127.93,-1000.49,39.67,32.35,6.1,4.88,25.38,37.28,2.50
3,23155,0,0.0,,,,,,,,
4,23156,0,0.0,,,,,,,,
5,23158,0,0.0,,,,,,,,
6,23160,0,0.0,,,,,,,,
0,23168,4,90.09,-571.17,802.25,20.14,13.43,19.53,-1.39,24.82,-12.78
1,23180,4,-11.35,-992.8,166.14,93.99,14.04,-0.61,34.94,40.38,-3.49
2,23191,5,-124.51,-1000.12,38.21,30.52,5.49,5.49,25.54,36.63,2.31
3,23203,0,0.0,,,,,,,,
4,23204,0,0.0,,,,,,,,
5,23206,0,0.0,,,,,,,,
6,23208,0,0.0,,,,,,,,
0,23212,4,89.84,-571.9,801.27,23.8,15.26,20.14,-1.23,24.49,-13.27
1,23224,3,-7.93,-993.65,165.28,85.45,12.21,-2.44,34.94,40.38,-3.49
2,23234,5,-127.32,-995.61,38.33,32.35,11.6,4.88,24.76,36.22,2.06
3,23250,0,0.0,,,,,,,,
4,23251,0,0.0,,,,,,,,
5,23254,0,0.0,,,,,,,,
6,23256,0,0.0,,,,,,,,
0,23259,4,93.63,-573.12,801.88,20.75,15.26,20.14,-1.27,24.08,-13.28
1,23271,4,-9.4,-994.14,166.14,91.55,12.21,0.61,35.4,40.93,-3.88
2,23282,5,-124.02,-1000.49,36.5,32.96,4.88,5.49,25.0,36.56,1.93
3,23294,0,0.0,,,,,,,,
4,23296,0,0.0,,,,,,,,
5,23298,0,0.0,,,,,,,,
6,23300,0,0.0,,,,,,,,
0,23303,3,91.06,-572.02,801.39,21.36,14.65,20.75,-1.27,24.08,-13.28
1,23318,4,-10.01,-991.94,165.77,92.16,12.82,-1.83,34.95,40.72,-3.43
2,23329,5,-130.49,-998.05,37.84,34.18,4.27,4.27,25.68,36.30,1.88
3,23342,0,0.0,,,,,,,,
4,23343,0,0.0,,,,,,,,
5,23345,0,0.0,,,,,,,,
6,23347,0,0.0,,,,,,,,
0,23350,4,89.23,-572.88,801.51,18.92,14.04,21.36,-1.1,24.04,-12.73
1,23362,4,-7.08,-994.26,165.04,95.83,10.99,-2.44,34.88,40.22,-2.60
2,23374,4,-119.26,-1000.61,35.03,33.57,10.38,4.27,25.54,36.12,1.26
3,23386,0,0.0,,,,,,,,
4,23388,0,0.0,,,,,,,,
5,23393,0,0.0,,,,,,,,
6,23395,0,0.0,,,,,,,,
0,23398,4,91.19,-572.39,802.61,20.75,18.31,23.19,-1.11,24.23,-13.40
1,23410,4,-9.89,-992.07,165.53,92.16,11.6,-4.27,34.83,40.33,-3.96
2,23422,5,-125.37,-1000.49,37.84,31.13,6.1,4.27,25.71,35.95,1.23
3,23434,0,0.0,,,,,,,,
4,23436,0,0.0,,,,,,,,
5,23437,0,0.0,,,,,,,,
6,23439,0,0.0,,,,,,,,
0,23442,5,94.97,-572.02,802.61,23.19,17.7,26.25,-0.62,24.29,-12.60
1,23454,4,-9.28,-991.33,166.63,92.16,11.6,-0.61,34.61,39.31,-2.51
2,23471,4,-124.27,-1000.61,33.81,31.74,4.88,5.49,25.44,35.85,1.33
3,23482,0,0.0,,,,,,,,
4,23484,0,0.0,,,,,,,,
5,23485,0,0.0,,,,,,,,
6,23487,0,0.0,,,,,,,,
0,23490,5,89.84,-571.17,802.0,20.75,16.48,21.36,-0.32,24.60,-13.17
1,23502,4,-8.79,-993.65,165.28,94.6,12.21,-4.88,34.0,40.81,-4.10
2,23515,4,-123.17,-1001.34,32.23,29.91,7.93,3.66,25.81,35.64,2.03
3,23526,0,0.0,,,,,,,,
4,23528,0,0.0,,,,,,,,
5,23529,0,0.0,,,,,,,,
6,23531,0,0.0,,,,,,,,
0,23534,5,89.36,-572.14,801.27,25.02,17.7,23.8,-0.42,23.88,-12.59
1,23550,5,-9.16,-989.14,164.79,94.6,11.6,-5.49,34.84,40.21,-4.33
2,23563,4,-125.85,-996.09,32.71,28.69,7.93,0.61,25.66,36.19,2.98
3,23574,0,0.0,,,,,,,,
4,23576,0,0.0,,,,,,,,
5,23577,0,0.0,,,,,,,,
6,23579,0,0.0,,,,,,,,
0,23582,5,94.85,-571.29,802.86,20.75,12.82,21.36,-0.44,24.27,-13.82
1,23595,4,-8.67,-995.36,164.43,92.16,12.21,-2.44,34.38,40.39,-3.34
2,23607,4,-128.42,-1002.44,31.25,25.63,3.05,3.66,25.79,36.07,1.61
3,23622,0,0.0,,,,,,,,
4,23624,0,0.0,,,,,,,,
5,23625,0,0.0,,,,,,,,
6,23627,0,0.0,,,,,,,,
0,23630,5,91.19,-571.78,802.12,22.58,15.26,20.14,-0.89,24.08,-13.07
1,23643,4,-13.18,-994.26,165.16,89.72,12.82,-3.05,34.45,39.86,-4.68
2,23655,3,-121.46,-1000.49,34.3,26.86,4.88,2.44,25.79,36.07,1.61
3,23665,0,0.0,,,,,,,,
4,23667,0,0.0,,,,,,,,
5,23668,1,0.0,,,,,,,,
6,23670,0,0.0,,,,,,,,
0,23673,5,94.12,-571.53,799.19,24.41,17.09,21.97,0.26,23.89,-12.29
1,23686,5,-11.84,-990.72,164.43,88.5,13.43,-2.44,34.59,39.94,-3.60
2,23702,4,-125.24,-998.78,33.33,26.25,1.22,1.22,25.66,35.91,2.23
3,23713,0,0.0,,,,,,,,
4,23715,0,0.0,,,,,,,,
5,23716,0,0.0,,,,,,,,
6,23718,0,0.0,,,,,,,,
0,23721,6,93.26,-573.36,802.12,20.14,12.82,20.14,0.04,24.37,-13.27
1,23734,3,-12.57,-993.41,164.43,92.77,12.21,-1.22,34.59,39.94,-3.60
2,23745,4,-118.04,-1000.49,34.3,27.47,3.05,1.83,25.72,35.99,2.78
3,23756,0,0.0,,,,,,,,
4,23758,0,0.0,,,,,,,,
5,23759,1,0.0,,,,,,,,
6,23766,0,0.0,,,,,,,,
0,23769,5,93.26,-571.66,804.08,22.58,16.48,20.14,-0.17,24.29,-13.12
1,23781,4,-10.74,-993.65,164.67,89.11,13.43,-2.44,35.21,40.09,-3.59
2,23793,4,-129.39,-1000.61,32.47,23.8,-3.05,-0.61,25.43,36.12,1.62
3,23804,0,0.0,,,,,,,,
4,23806,0,0.0,,,,,,,,
5,23808,1,0.0,,,,,,,,
6,23810,0,0.0,,,,,,,,
0,23813,5,93.63,-571.66,800.9,21.36,14.65,20.14,0.12,24.29,-13.75
1,23825,5,-9.16,-992.31,165.65,90.33,12.21,-1.22,35.11,40.31,-4.59
2,23841,4,-117.31,-1000.49,31.25,23.8,6.71,2.44,26.03,35.50,1.87
3,23853,0,0.0,,,,,,,,
4,23855,0,0.0,,,,,,,,
5,23856,0,0.0,,,,,,,,
6,23858,0,0.0,,,,,,,,
0,23861,5,91.19,-571.66,802.61,22.58,15.26,22.58,-0.15,24.05,-12.94
1,23873,5,-12.7,-993.65,164.06,88.5,12.21,-3.05,35.01,40.06,-3.60
2,23885,4,-131.23,-1000.61,34.18,21.36,-3.66,-0.61,26.27,36.39,2.04
3,23897,0,0.0,,,,,,,,
4,23899,0,0.0,,,,,,,,
5,23901,0,0.0,,,,,,,,
6,23902,0,0.0,,,,,,,,
0,23906,4,93.38,-571.78,801.64,23.19,14.65,20.75,-0.39,24.43,-12.56
1,23921,5,-10.25,-990.97,164.92,89.72,11.6,-1.83,35.08,40.32,-3.38
2,23933,6,-118.53,-998.41,34.55,23.19,3.05,-1.22,25.57,36.38,2.22
3,23945,1,0.0,,,,,,,,
4,23947,0,0.0,,,,,,,,
5,23949,0,0.0,,,,,,,,
6,23950,0,0.0,,,,,,,,
0,23954,4,92.29,-572.27,802.0,21.97,16.48,21.97,-0.56,24.38,-13.05
1,23966,4,-10.01,-992.19,165.65,88.5,12.82,-3.66,35.16,39.92,-4.08
2,23977,6,-129.03,-1000.49,34.79,24.41,-2.44,-1.22,25.77,36.15,1.94
3,23993,1,0.0,,,,,,,,
4,23995,0,0.0,,,,,,,,
5,23997,0,0.0,,,,,,,,
6,23998,1,0.0,,,,,,,,
0,24002,4,93.99,-572.14,802.0,24.41,16.48,22.58,-0.61,24.45,-13.33
1,24014,4,-11.11,-993.04,165.65,91.55,12.21,-2.44,34.73,40.66,-3.92
2,24026,5,-121.7,-1000.49,34.79,23.8,6.1,-1.22,25.96,36.30,2.75
3,24038,0,0.0,,,,,,,,
4,24039,0,0.0,,,,,,,,
5,24041,0,0.0,,,,,,,,
6,24043,0,0.0,,,,,,,,
0,24046,4,93.63,-573.36,800.9,21.97,17.09,23.8,-0.51,25.05,-13.28
1,24058,4,-10.01,-993.41,165.16,91.55,10.38,-4.88,35.28,40.17,-5.15
2,24074,5,-127.08,-1000.24,33.81,23.19,1.22,-1.22,26.21,35.90,1.84
3,24086,0,0.0,,,,,,,,
4,24087,1,0.0,,,,,,,,
5,24089,0,0.0,,,,,,,,
6,24091,0,0.0,,,,,,,,
0,24094,5,93.02,-571.41,802.25,22.58,15.87,23.8,-0.76,24.41,-12.62
1,24107,4,-11.6,-992.8,166.26,88.5,11.6,-4.27,35.17,39.75,-4.36
2,24119,4,-125.0,-999.76,35.52,19.53,4.27,-1.83,26.04,36.02,2.01
3,24130,0,0.0,,,,,,,,
4,24132,0,0.0,,,,,,,,
5,24133,0,0.0,,,,,,,,
6,24139,0,0.0,,,,,,,,
0,24142,5,92.65,-571.29,802.61,21.36,14.65,20.75,-1.0,24.54,-12.77
1,24155,4,-13.18,-993.53,166.5,89.11,12.21,-3.05,34.77,40.44,-4.46
2,24167,4,-121.58,-1000.61,36.99,21.36,5.49,0.61,25.59,36.45,1.53
3,24178,0,0.0,,,,,,,,
4,24180,0,0.0,,,,,,,,
5,24181,0,0.0,,,,,,,,
6,24183,0,0.0,,,,,,,,
0,24186,4,91.8,-572.39,802.0,25.63,18.92,23.8,-1.0,24.54,-12.77
1,24198,4,-11.23,-992.43,165.65,89.11,11.6,-7.93,34.83,40.23,-4.46
2,24214,4,-136.96,-997.31,36.99,25.63,-7.32,-5.49,25.18,36.52,1.49
3,24225,0,0.0,,,,,,,,
4,24227,0,0.0,,,,,,,,
5,24228,0,0.0,,,,,,,,
6,24230,0,0.0,,,,,,,,
0,24233,6,93.14,-570.43,802.25,23.8,15.87,23.19,-0.98,24.07,-12.85
1,24246,5,-14.4,-995.0,165.53,92.77,12.21,-3.05,35.13,40.20,-2.97
2,24258,3,-118.77,-1000.49,37.96,25.63,9.16,-3.66,25.18,36.52,1.49
3,24268,0,0.0,,,,,,,,
4,24270,0,0.0,,,,,,,,
5,24272,0,0.0,,,,,,,,
6,24273,0,0.0,,,,,,,,
0,24278,4,93.63,-572.39,802.25,25.02,17.7,23.8,-0.68,24.06,-12.16
1,24301,4,-15.99,-993.16,165.53,90.94,12.21,-4.88,35.17,40.31,-4.30
2,24313,4,-132.69,-1001.22,36.25,26.86,-5.49,-7.93,21.98,36.35,2.27
3,24325,0,0.0,,,,,,,,
4,24327,0,0.0,,,,,,,,
5,24328,1,0.0,,,,,,,,
6,24330,0,0.0,,,,,,,,
0,24334,4,94.6,-572.14,801.64,23.8,17.7,23.8,-0.79,24.68,-13.27
1,24345,5,-12.45,-993.41,165.65,88.5,12.82,-1.83,35.02,40.33,-4.83
2,24357,3,-124.76,-1000.37,34.67,25.63,0.0,-7.32,21.98,36.35,2.27
3,24372,0,0.0,,,,,,,,
4,24374,0,0.0,,,,,,,,
5,24376,0,0.0,,,,,,,,
6,24377,0,0.0,,,,,,,,
0,24381,4,93.63,-572.27,802.25,21.97,18.31,25.02,-0.72,23.90,-12.85
1,24392,4,-14.4,-992.31,166.5,86.06,12.21,-4.88,35.02,40.33,-4.83
2,24403,6,-127.44,-1000.12,38.82,22.58,-6.1,-10.38,24.74,36.27,2.17
3,24416,0,0.0,,,,,,,,
4,24417,0,0.0,,,,,,,,
5,24419,0,0.0,,,,,,,,
6,24420,1,0.0,,,,,,,,
0,24424,4,98.02,-572.27,801.76,20.14,16.48,26.25,-0.07,24.07,-12.68
1,24436,4,-14.77,-993.9,166.75,92.16,12.82,-1.83,34.62,40.64,-4.09
2,24452,5,-131.23,-1000.61,35.77,22.58,-11.6,-9.77,25.28,36.40,1.68
3,24464,0,0.0,,,,,,,,
4,24465,0,0.0,,,,,,,,
5,24467,0,0.0,,,,,,,,
6,24469,0,0.0,,,,,,,,
0,24472,4,95.58,-569.95,802.0,21.36,17.09,23.8,-0.84,23.66,-12.87
1,24484,4,-12.33,-993.65,165.53,91.55,14.04,-3.05,34.47,40.54,-3.87
2,24497,4,-124.02,-1000.61,31.86,14.04,1.22,-10.38,24.83,36.45,1.35
3,24508,0,0.0,,,,,,,,
4,24510,0,0.0,,,,,,,,
5,24515,0,0.0,,,,,,,,
6,24517,0,0.0,,,,,,,,
0,24520,4,97.41,-570.31,801.15,23.8,18.31,23.19,-0.11,24.48,-12.29
1,24532,5,-15.75,-993.9,165.65,90.33,11.6,-5.49,34.48,40.04,-4.86
2,24545,4,-140.14,-999.63,36.5,7.93,-9.77,-9.16,25.12,36.27,1.93
3,24556,0,0.0,,,,,,,,
4,24558,0,0.0,,,,,,,,
5,24559,0,0.0,,,,,,,,
6,24561,0,0.0,,,,,,,,
0,24564,5,97.29,-571.66,801.27,21.97,13.43,19.53,-0.32,24.22,-12.85
1,24577,4,-14.77,-995.48,166.63,89.11,10.99,1.22,34.57,39.99,-3.42
2,24593,4,-128.17,-998.54,39.67,6.71,-12.21,-8.54,25.06,36.16,1.37
3,24604,0,0.0,,,,,,,,
4,24606,0,0.0,,,,,,,,
5,24607,0,0.0,,,,,,,,
6,24609,0,0.0,,,,,,,,
0,24612,5,98.39,-572.14,802.61,25.02,12.82,20.14,-0.06,24.18,-12.61
1,24625,4,-16.6,-993.65,166.75,85.45,15.26,1.22,34.68,40.45,-4.21
2,24637,4,-139.53,-997.19,42.36,10.38,-21.36,-7.93,25.23,36.24,1.25
3,24648,0,0.0,,,,,,,,
4,24650,0,0.0,,,,,,,,
5,24652,0,0.0,,,,,,,,
6,24653,0,0.0,,,,,,,,
0,24657,5,95.21,-571.41,800.66,17.09,9.77,13.43,-0.16,24.46,-12.11
1,24673,5,-11.96,-996.83,166.75,86.06,16.48,6.71,35.01,39.92,-3.09
2,24685,4,-131.23,-1001.83,42.85,11.6,-25.02,-7.32,24.98,36.38,1.76
3,24696,0,0.0,,,,,,,,
4,24698,0,0.0,,,,,,,,
5,24700,0,0.0,,,,,,,,
6,24701,0,0.0,,,,,,,,
0,24706,4,88.38,-571.04,803.34,26.86,13.43,17.09,-0.33,24.32,-12.04
1,24717,5,-7.45,-990.36,167.85,82.4,13.43,1.22,34.96,40.10,-3.91
2,24729,4,-138.18,-1000.49,43.21,5.49,-29.3,-10.38,25.24,36.16,2.40
3,24744,0,0.0,,,,,,,,
4,24747,0,0.0,,,,,,,,
5,24749,0,0.0,,,,,,,,
6,24750,0,0.0,,,,,,,,
0,24754,4,94.48,-571.9,802.86,30.52,18.31,16.48,-0.49,24.51,-12.11
1,24765,5,-10.62,-990.97,168.95,84.23,15.87,3.05,34.59,40.39,-2.80
2,24777,5,-132.2,-997.07,45.65,2.44,-6.1,-1.83,25.72,36.28,1.45
3,24788,2,0.0,,,,,,,,
4,24791,0,0.0,,,,,,,,
5,24793,0,0.0,,,,,,,,
6,24794,1,0.0,,,,,,,,
0,24798,4,92.53,-575.07,802.12,31.13,17.09,15.26,-0.23,25.12,-11.96
1,24810,4,-10.25,-990.84,169.68,81.79,15.87,0.61,34.56,40.08,-3.41
2,24825,5,-132.32,-994.38,54.44,9.16,-9.16,-4.27,25.27,35.82,2.10
3,24837,1,0.0,,,,,,,,
4,24839,0,0.0,,,,,,,,
5,24841,0,0.0,,,,,,,,
6,24842,1,0.0,,,,,,,,
0,24846,4,95.09,-574.1,797.85,31.74,13.43,20.14,-0.42,24.73,-14.01
1,24858,4,-10.5,-987.3,170.29,87.89,9.77,-3.05,35.24,39.94,-4.19
2,24869,4,-137.45,-993.77,53.1,15.87,-2.44,-7.32,25.27,35.82,2.10
3,24881,0,0.0,,,,,,,,
4,24882,0,0.0,,,,,,,,
5,24884,0,0.0,,,,,,,,
6,24890,0,0.0,,,,,,,,
0,24894,4,94.24,-576.54,799.8,25.63,14.65,18.92,-0.4,24.50,-13.29
1,24905,5,-12.08,-991.21,169.8,89.11,13.43,-0.61,34.94,40.19,-3.86
2,24918,5,-141.97,-997.56,48.83,19.53,-3.05,-5.49,25.5,36.73,1.42
3,24930,0,0.0,,,,,,,,
4,24931,0,0.0,,,,,,,,
5,24933,0,0.0,,,,,,,,
6,24934,1,0.0,,,,,,,,
0,24938,4,91.92,-575.2,801.03,22.58,15.87,17.09,-0.76,24.34,-12.85
1,24950,3,-8.06,-992.43,169.07,87.28,11.6,1.22,34.94,40.19,-3.86
2,24965,5,-138.43,-1000.98,50.17,18.31,3.05,-3.05,25.44,36.51,0.74
3,24977,0,0.0,,,,,,,,
4,24978,0,0.0,,,,,,,,
5,24980,0,0.0,,,,,,,,
6,24981,1,0.0,,,,,,,,
0,24985,4,97.17,-575.81,800.29,29.91,14.65,20.75,-1.21,25.09,-12.07
1,24997,4,-14.77,-994.38,170.29,91.55,12.21,-0.61,34.62,40.12,-2.95
2,25009,5,-139.77,-996.7,53.71,18.92,0.61,-3.66,26.17,36.44,0.89
3,25021,0,0.0,,,,,,,,
4,25022,0,0.0,,,,,,,,
5,25024,0,0.0,,,,,,,,
6,25026,0,0.0,,,,,,,,
0,25029,4,91.8,-575.56,801.15,25.02,16.48,17.09,-1.05,24.93,-12.28
1,25046,4,-9.4,-987.18,171.51,90.94,14.04,-2.44,35.08,40.16,-4.21
2,25057,5,-131.47,-998.78,52.49,23.8,12.82,-3.05,25.05,36.40,0.84
3,25069,0,0.0,,,,,,,,
4,25070,0,0.0,,,,,,,,
5,25072,0,0.0,,,,,,,,
6,25074,0,0.0,,,,,,,,
0,25077,3,94.85,-576.29,799.19,23.8,15.26,19.53,-1.05,24.93,-12.28
1,25089,4,-11.47,-991.46,170.17,92.77,12.21,-0.61,35.93,39.87,-3.83
2,25101,4,-142.7,-999.63,51.88,22.58,6.1,-3.05,25.76,35.72,-0.22
3,25116,0,0.0,,,,,,,,
4,25117,1,0.0,,,,,,,,
5,25119,0,0.0,,,,,,,,
6,25121,0,0.0,,,,,,,,
0,25124,5,93.87,-574.46,801.64,25.02,16.48,21.36,-0.94,25.07,-12.57
1,25137,4,-10.99,-993.29,168.46,89.72,12.21,-3.05,35.19,40.47,-4.26
2,25149,4,-142.33,-996.22,52.98,25.02,3.05,-1.83,25.61,36.33,1.42
3,25160,0,0.0,,,,,,,,
4,25162,0,0.0,,,,,,,,
5,25163,0,0.0,,,,,,,,
6,25165,0,0.0,,,,,,,,
0,25168,6,95.46,-576.54,798.95,23.19,15.87,18.31,-1.33,25.24,-12.40
1,25181,5,-11.23,-989.01,170.53,91.55,14.04,-0.61,34.45,39.42,-3.88
2,25197,4,-137.57,-998.05,53.34,26.86,11.6,0.0,24.82,36.06,0.76
3,25208,0,0.0,,,,,,,,
4,25210,0,0.0,,,,,,,,
5,25211,0,0.0,,,,,,,,
6,25213,0,0.0,,,,,,,,
0,25217,5,94.24,-575.07,801.15,24.41,12.21,18.92,-1.29,24.74,-12.19
1,25229,5,-10.5,-993.41,169.43,90.94,12.82,-2.44,34.85,40.16,-3.85
2,25241,4,-140.99,-999.15,51.27,23.8,0.61,0.0,25.22,36.04,1.43
3,25252,0,0.0,,,,,,,,
4,25254,0,0.0,,,,,,,,
5,25255,1,0.0,,,,,,,,
6,25262,0,0.0,,,,,,,,
0,25265,5,94.36,-577.27,800.42,25.63,18.31,20.14,-1.11,24.71,-12.10
1,25277,5,-10.25,-989.26,170.78,93.38,12.21,-3.66,34.63,40.33,-3.16
2,25289,4,-139.53,-996.09,56.03,26.86,12.82,-0.61,25.32,35.77,0.63
3,25300,0,0.0,,,,,,,,
4,25303,0,0.0,,,,,,,,
5,25305,0,0.0,,,,,,,,
6,25306,0,0.0,,,,,,,,
0,25310,4,94.85,-575.81,799.8,23.19,20.14,23.8,-1.06,24.88,-12.39
1,25321,5,-9.77,-996.34,168.46,94.6,10.38,-4.27,34.61,39.98,-5.25
2,25333,5,-141.24,-998.54,53.22,25.63,7.32,0.61,25.37,36.27,1.55
3,25349,0,0.0,,,,,,,,
4,25351,0,0.0,,,,,,,,
5,25353,0,0.0,,,,,,,,
6,25354,0,0.0,,,,,,,,
0,25358,4,94.85,-577.39,799.44,28.08,15.87,22.58,-1.55,24.93,-11.89
1,25369,5,-9.89,-992.8,169.92,93.38,11.6,-1.83,34.95,40.17,-3.91
2,25381,6,-139.65,-997.92,55.05,28.08,4.27,1.83,25.61,36.29,0.92
3,25393,0,0.0,,,,,,,,
4,25395,0,0.0,,,,,,,,
5,25397,0,0.0,,,,,,,,
6,25398,0,0.0,,,,,,,,
0,25402,4,95.34,-576.29,800.29,20.14,20.75,21.36,-1.38,24.48,-12.70
1,25417,5,-13.67,-993.41,169.19,92.16,12.21,-2.44,34.91,40.23,-3.38
2,25430,4,-142.82,-998.41,51.88,28.08,2.44,0.0,25.16,36.44,1.14
3,25441,0,0.0,,,,,,,,
4,25443,0,0.0,,,,,,,,
5,25445,0,0.0,,,,,,,,
6,25446,0,0.0,,,,,,,,
0,25450,4,98.75,-576.42,797.73,20.14,20.75,21.97,-1.23,24.26,-13.04
1,25461,5,-11.47,-992.68,169.43,92.16,13.43,0.0,35.17,40.16,-3.56
2,25474,4,-140.99,-996.95,52.37,27.47,3.66,1.22,25.16,36.44,1.14
3,25484,1,0.0,,,,,,,,
4,25490,0,0.0,,,,,,,,
5,25491,1,0.0,,,,,,,,
6,25493,0,0.0,,,,,,,,
0,25496,5,98.14,-575.93,797.97,20.75,15.87,18.31,-1.23,25.02,-13.31
1,25508,4,-11.35,-991.46,168.58,89.72,12.82,0.0,35.17,40.16,-3.56
2,25520,4,-139.65,-999.39,51.51,27.47,3.05,1.83,25.6,36.11,1.44
3,25531,0,0.0,,,,,,,,
4,25533,0,0.0,,,,,,,,
5,25534,1,0.0,,,,,,,,
6,25536,0,0.0,,,,,,,,
0,25540,4,99.24,-576.42,800.29,19.53,17.09,20.75,-0.56,24.56,-13.31
1,25551,5,-13.92,-992.07,169.07,93.38,14.04,-2.44,35.02,40.06,-3.83
2,25568,4,-140.5,-1000.49,52.0,25.02,-3.66,0.61,25.28,36.00,1.61
3,25579,0,0.0,,,,,,,,
4,25581,0,0.0,,,,,,,,
5,25582,1,0.0,,,,,,,,
6,25584,0,0.0,,,,,,,,
0,25587,5,97.05,-575.07,799.07,24.41,15.26,18.31,-0.84,24.33,-12.13
1,25600,5,-12.45,-992.07,169.19,86.06,13.43,-0.61,34.97,40.08,-3.81
2,25612,4,-144.17,-997.68,51.51,20.14,-4.88,-0.61,25.27,36.36,0.23
3,25623,0,0.0,,,,,,,,
4,25625,0,0.0,,,,,,,,
5,25627,0,0.0,,,,,,,,
6,25628,0,0.0,,,,,,,,
0,25635,5,95.58,-576.54,797.24,23.19,16.48,17.7,-0.83,25.55,-12.56
1,25648,5,-12.08,-989.99,170.41,88.5,13.43,0.0,35.23,40.32,-3.06
2,25660,4,-142.46,-995.61,55.66,24.41,3.66,0.61,25.2,36.85,1.01
3,25671,0,0.0,,,,,,,,
4,25673,0,0.0,,,,,,,,
5,25674,1,0.0,,,,,,,,
6,25676,0,0.0,,,,,,,,
0,25680,4,98.14,-574.22,801.39,22.58,15.26,18.31,-1.32,24.50,-12.88
1,25692,5,-13.67,-996.58,168.33,94.6,13.43,-1.22,35.08,40.14,-4.11
2,25704,4,-141.48,-1000.24,49.8,22.58,-3.05,1.22,24.82,36.41,0.92
3,25719,0,0.0,,,,,,,,
4,25721,0,0.0,,,,,,,,
5,25723,0,0.0,,,,,,,,
6,25724,0,0.0,,,,,,,,
0,25729,4,97.9,-577.27,798.1,24.41,16.48,18.31,-1.61,24.85,-13.49
1,25740,5,-10.25,-992.43,170.29,91.55,13.43,1.22,34.7,40.34,-3.71
2,25752,5,-144.29,-997.8,52.0,23.19,3.05,0.61,25.4,36.33,1.25
3,25763,0,0.0,,,,,,,,
4,25765,0,0.0,,,,,,,,
5,25767,0,0.0,,,,,,,,
6,25768,0,0.0,,,,,,,,
0,25773,4,97.53,-577.51,798.71,25.02,14.04,18.31,-1.16,24.91,-13.20
1,25788,5,-11.96,-993.16,168.33,89.11,13.43,1.22,34.9,39.83,-4.16
2,25800,4,-140.99,-996.22,54.08,23.8,2.44,1.22,24.99,36.28,1.23
3,25811,0,0.0,,,,,,,,
4,25814,0,0.0,,,,,,,,
5,25816,0,0.0,,,,,,,,
6,25817,0,0.0,,,,,,,,
0,25821,4,94.36,-576.78,799.8,23.8,17.7,17.7,-0.73,25.13,-13.68
1,25832,5,-15.63,-990.72,169.07,87.89,12.82,-3.05,35.23,40.78,-3.41
2,25844,5,-147.95,-995.61,52.86,24.41,1.22,1.83,24.79,36.58,1.20
3,25856,1,0.0,,,,,,,,
4,25862,0,0.0,,,,,,,,
5,25864,0,0.0,,,,,,,,
6,25865,0,0.0,,,,,,,,
0,25869,4,96.56,-576.42,800.9,22.58,15.26,18.31,-0.74,24.69,-12.26
1,25880,5,-11.72,-992.92,169.8,91.55,13.43,3.05,34.69,40.11,-4.42
2,25892,4,-140.63,-997.19,52.37,25.02,-1.22,2.44,25.21,36.12,1.26
3,25904,1,0.0,,,,,,,,
4,25906,0,0.0,,,,,,,,
5,25908,0,0.0,,,,,,,,
6,25909,0,0.0,,,,,,,,
0,25913,3,96.8,-576.29,796.88,21.97,16.48,15.87,-0.74,24.69,-12.26
1,25923,5,-10.38,-992.92,169.68,90.33,14.04,-1.83,35.17,40.43,-4.85
2,25939,5,-146.36,-998.66,51.39,22.58,-2.44,0.61,24.56,36.13,1.45
3,25951,1,0.0,,,,,,,,
4,25953,0,0.0,,,,,,,,
5,25955,0,0.0,,,,,,,,
6,25956,0,0.0,,,,,,,,
0,25960,4,96.19,-575.68,798.71,23.19,14.65,19.53,-1.2,24.85,-13.10
1,25971,5,-10.38,-993.65,169.43,86.67,13.43,1.22,34.89,40.10,-4.05
2,25984,4,-145.02,-1000.37,51.76,23.8,1.22,4.27,24.56,36.13,1.45
3,25994,1,0.0,,,,,,,,
4,25996,0,0.0,,,,,,,,
5,25998,0,0.0,,,,,,,,
6,25999,1,0.0,,,,,,,,
0,26003,4,95.95,-577.64,797.61,24.41,15.87,18.92,-1.38,25.92,-13.40
1,26018,5,-12.08,-990.72,169.68,87.89,12.21,-2.44,34.4,40.54,-3.85
2,26031,5,-143.43,-995.85,54.57,22.58,-0.61,1.22,24.68,35.95,1.51
3,26043,0,0.0,,,,,,,,
4,26044,0,0.0,,,,,,,,
5,26046,0,0.0,,,,,,,,
6,26047,1,0.0,,,,,,,,
0,26051,4,96.92,-576.9,797.85,20.75,16.48,16.48,-1.56,25.33,-13.46
1,26063,3,-11.84,-992.55,169.68,90.94,14.04,0.61,34.4,40.54,-3.85
2,26074,5,-142.09,-996.7,51.64,24.41,-2.44,3.66,25.09,35.74,1.07
3,26089,0,0.0,,,,,,,,
4,26091,0,0.0,,,,,,,,
5,26093,0,0.0,,,,,,,,
6,26094,0,0.0,,,,,,,,
0,26098,4,96.44,-578.0,798.34,22.58,13.43,18.31,-1.06,25.42,-11.91
1,26109,6,-12.57,-994.14,169.19,90.94,12.82,-0.61,34.79,40.52,-4.10
2,26122,5,-143.31,-1000.12,52.61,25.63,-2.44,2.44,24.68,36.74,1.62
3,26134,0,0.0,,,,,,,,
4,26135,0,0.0,,,,,,,,
5,26137,0,0.0,,,,,,,,
6,26138,1,0.0,,,,,,,,
0,26142,4,96.19,-578.86,799.32,20.75,15.87,17.7,-0.74,24.58,-12.01
1,26158,5,-10.01,-991.33,170.41,89.11,14.04,-0.61,34.46,40.83,-3.99
2,26170,5,-143.19,-997.8,51.15,23.8,-2.44,3.05,25.42,36.49,1.60
3,26182,0,0.0,,,,,,,,
4,26183,0,0.0,,,,,,,,
5,26185,0,0.0,,,,,,,,
6,26186,1,0.0,,,,,,,,
0,26190,4,99.98,-575.44,796.88,18.92,14.65,16.48,-1.38,24.54,-13.31
1,26203,4,-10.01,-991.7,170.9,89.11,14.04,2.44,34.69,40.65,-4.33
2,26214,5,-140.63,-998.05,52.73,23.19,-2.44,6.1,25.37,36.05,0.68
3,26226,0,0.0,,,,,,,,
4,26227,0,0.0,,,,,,,,
5,26233,0,0.0,,,,,,,,
6,26234,1,0.0,,,,,,,,
0,26238,5,94.48,-576.78,797.73,23.19,15.26,16.48,-1.16,24.98,-13.40
1,26251,4,-7.93,-990.72,170.53,89.11,14.65,-2.44,35.23,40.76,-4.44
2,26262,5,-139.89,-997.07,54.69,24.41,-5.49,2.44,24.76,36.00,2.08
3,26274,0,0.0,,,,,,,,
4,26275,0,0.0,,,,,,,,
5,26277,0,0.0,,,,,,,,
6,26279,0,0.0,,,,,,,,
0,26283,4,95.58,-578.25,801.27,21.36,14.65,18.92,-1.46,25.51,-12.30
1,26295,4,-10.99,-994.51,169.19,88.5,15.26,1.22,35.46,40.10,-4.72
2,26310,5,-144.04,-997.19,54.08,23.19,2.44,3.05,25.2,36.22,0.24
3,26322,0,0.0,,,,,,,,
4,26323,0,0.0,,,,,,,,
5,26326,0,0.0,,,,,,,,
6,26328,0,0.0,,,,,,,,
0,26331,4,95.34,-577.03,800.54,21.97,17.7,17.09,-1.29,25.34,-13.35
1,26343,4,-13.06,-991.58,170.65,92.16,14.04,-1.22,35.74,40.55,-4.27
2,26354,5,-139.53,-997.8,53.71,25.63,1.22,2.44,25.38,36.28,0.84
3,26366,0,0.0,,,,,,,,
4,26368,0,0.0,,,,,,,,
5,26370,0,0.0,,,,,,,,
6,26372,0,0.0,,,,,,,,
0,26391,4,98.39,-576.42,798.95,24.41,14.04,19.53,-1.55,25.20,-12.95
1,26407,6,-10.62,-991.46,170.78,91.55,12.21,0.0,34.77,40.61,-3.82
2,26420,5,-136.72,-1000.0,51.88,25.02,3.05,0.61,25.27,36.74,0.70
3,26431,1,0.0,,,,,,,,
4,26433,0,0.0,,,,,,,,
5,26435,0,0.0,,,,,,,,
6,26436,0,0.0,,,,,,,,
0,26440,4,96.68,-576.54,798.71,21.97,15.87,18.31,-1.43,24.67,-12.82
1,26452,5,-8.91,-990.23,170.65,89.72,11.6,0.0,35.17,40.28,-3.28
2,26464,5,-140.63,-996.09,54.57,23.8,3.05,1.83,25.11,36.44,0.98
3,26479,0,0.0,,,,,,,,
4,26481,0,0.0,,,,,,,,
5,26483,0,0.0,,,,,,,,
6,26484,0,0.0,,,,,,,,
0,26488,4,97.05,-576.66,798.34,21.36,14.65,17.7,-1.59,25.42,-12.34
1,26500,5,-11.72,-992.8,170.53,90.94,12.21,-1.22,35.06,40.43,-3.85
2,26512,5,-141.11,-1000.12,53.34,25.02,4.27,3.05,24.9,35.78,0.92
3,26523,1,0.0,,,,,,,,
4,26525,0,0.0,,,,,,,,
5,26527,0,0.0,,,,,,,,
6,26528,0,0.0,,,,,,,,
0,26532,4,94.12,-577.76,799.56,23.19,15.87,18.31,-1.79,25.23,-12.17
1,26545,4,-10.99,-992.19,169.92,92.16,14.04,-1.83,34.78,40.12,-3.91
2,26560,5,-143.31,-994.26,55.79,26.86,1.22,0.61,25.67,36.07,1.17
3,26571,1,0.0,,,,,,,,
4,26573,0,0.0,,,,,,,,
5,26575,0,0.0,,,,,,,,
6,26576,0,0.0,,,,,,,,
0,26580,5,95.83,-575.32,799.32,20.75,17.7,17.09,-1.4,25.22,-12.95
1,26592,5,-13.92,-994.51,169.31,92.16,12.21,1.83,35.19,40.26,-3.36
2,26604,5,-141.6,-1000.49,52.49,26.86,3.05,1.83,24.88,36.36,1.49
3,26616,0,0.0,,,,,,,,
4,26617,0,0.0,,,,,,,,
5,26619,0,0.0,,,,,,,,
6,26625,0,0.0,,,,,,,,
0,26629,4,95.83,-576.78,796.88,23.19,17.09,18.92,-1.88,24.73,-11.93
1,26640,5,-9.16,-989.87,170.65,91.55,10.38,-3.05,35.14,40.49,-3.34
2,26652,5,-142.7,-995.24,53.71,23.8,0.0,1.83,25.45,36.54,1.59
3,26663,1,0.0,,,,,,,,
4,26665,0,0.0,,,,,,,,
5,26668,0,0.0,,,,,,,,
6,26669,1,0.0,,,,,,,,
0,26673,4,96.68,-577.76,800.05,20.75,15.26,17.09,-1.86,24.82,-13.05
1,26685,4,-10.01,-990.6,171.14,90.94,11.6,1.22,35.53,40.94,-3.63
2,26700,4,-135.13,-998.17,57.13,23.19,7.93,3.66,25.72,36.13,1.43
3,26712,0,0.0,,,,,,,,
4,26714,0,0.0,,,,,,,,
5,26716,0,0.0,,,,,,,,
6,26717,0,0.0,,,,,,,,
0,26721,4,98.14,-575.81,800.29,22.58,14.65,18.92,-1.45,25.01,-12.81
1,26732,5,-11.84,-993.53,169.56,87.28,9.16,-4.88,35.07,40.41,-4.16
2,26744,5,-148.68,-997.19,55.54,22.58,-10.99,0.61,24.76,37.08,1.93
3,26756,1,0.0,,,,,,,,
4,26758,0,0.0,,,,,,,,
5,26760,0,0.0,,,,,,,,
6,26761,1,0.0,,,,,,,,
0,26765,4,96.31,-575.56,797.73,21.36,14.65,18.31,-1.49,24.82,-12.54
1,26780,5,-12.82,-992.43,169.92,90.94,14.04,-0.61,34.66,40.56,-3.45
2,26792,5,-138.67,-998.29,56.4,22.58,4.88,4.27,24.76,37.08,1.93
3,26803,1,0.0,,,,,,,,
4,26805,0,0.0,,,,,,,,
5,26807,0,0.0,,,,,,,,
6,26808,1,0.0,,,,,,,,
0,26812,4,94.12,-575.81,799.44,21.97,13.43,17.7,-1.46,25.17,-13.22
1,26824,3,-8.42,-993.65,169.19,89.11,12.82,-3.66,34.66,40.56,-3.45
2,26834,6,-139.77,-998.66,55.54,23.19,-6.71,1.22,24.76,36.73,0.92
3,26850,1,0.0,,,,,,,,
4,26852,0,0.0,,,,,,,,
5,26854,0,0.0,,,,,,,,
6,26855,1,0.0,,,,,,,,
0,26859,4,97.53,-577.27,798.22,21.36,14.65,18.92,-1.01,24.94,-11.78
1,26871,4,-11.84,-992.55,169.8,90.94,12.82,-1.83,34.86,40.33,-3.69
2,26883,5,-141.72,-998.41,55.42,23.8,1.22,3.05,24.89,36.41,1.16
3,26895,0,0.0,,,,,,,,
4,26896,0,0.0,,,,,,,,
5,26898,0,0.0,,,,,,,,
6,26900,0,0.0,,,,,,,,
0,26903,4,96.07,-576.17,798.46,21.36,14.04,18.31,-1.1,24.95,-12.11
1,26915,4,-9.77,-991.33,170.53,88.5,12.21,-0.61,34.79,40.53,-5.26
2,26931,5,-141.97,-999.39,57.5,21.36,-2.44,1.22,24.9,36.83,0.17
3,26943,0,0.0,,,,,,,,
4,26944,0,0.0,,,,,,,,
5,26946,0,0.0,,,,,,,,
6,26947,1,0.0,,,,,,,,
0,26951,4,96.92,-576.9,799.8,21.36,14.04,17.7,-1.03,25.37,-11.66
1,26963,5,-10.86,-992.07,170.41,89.72,14.65,-1.22,34.36,39.97,-4.17
2,26975,5,-141.48,-996.95,56.03,23.19,-2.44,2.44,24.84,36.65,0.63
3,26987,0,0.0,,,,,,,,
4,26988,0,0.0,,,,,,,,
5,26990,0,0.0,,,,,,,,
6,26995,1,0.0,,,,,,,,
0,26999,4,96.31,-576.05,800.42,21.97,16.48,18.31,-0.92,25.57,-12.59
1,27012,4,-9.77,-992.8,171.02,92.16,11.6,-1.83,34.73,40.66,-4.16
2,27023,5,-140.63,-1000.24,53.1,23.19,-1.83,3.66,25.5,36.29,1.09
3,27035,0,0.0,,,,,,,,
4,27036,0,0.0,,,,,,,,
5,27038,0,0.0,,,,,,,,
6,27040,0,0.0,,,,,,,,
0,27043,3,94.73,-575.93,797.85,23.19,14.65,16.48,-0.92,25.57,-12.59
1,27055,4,-8.3,-989.99,172.49,88.5,11.6,0.0,34.84,40.67,-4.19
2,27066,5,-141.48,-997.8,55.54,23.19,-0.61,2.44,25.18,36.47,1.59
3,27081,1,0.0,,,,,,,,
4,27083,0,0.0,,,,,,,,
5,27085,0,0.0,,,,,,,,
6,27086,0,0.0,,,,,,,,
0,27090,5,94.6,-575.68,801.15,23.8,16.48,18.31,-0.61,25.98,-13.55
1,27102,5,-7.69,-990.23,171.63,90.33,13.43,-3.66,34.84,41.25,-4.77
2,27114,5,-139.89,-997.07,57.62,22.58,0.61,3.05,25.07,36.87,0.51
3,27125,1,0.0,,,,,,,,
4,27127,0,0.0,,,,,,,,
5,27129,0,0.0,,,,,,,,
6,27130,0,0.0,,,,,,,,
0,27134,5,97.29,-576.42,798.1,22.58,15.26,18.31,-1.06,25.35,-12.61
1,27150,5,-12.45,-990.72,171.63,89.11,13.43,-3.05,35.02,40.82,-3.89
2,27162,5,-142.7,-997.31,57.01,23.8,-0.61,3.66,24.41,36.60,1.27
3,27173,1,0.0,,,,,,,,
4,27175,0,0.0,,,,,,,,
5,27177,0,0.0,,,,,,,,
6,27179,0,0.0,,,,,,,,
0,27183,4,93.51,-576.17,798.46,21.36,14.65,16.48,-1.59,25.38,-12.55
1,27194,5,-8.3,-991.33,171.63,92.77,10.99,0.0,35.42,40.67,-4.22
2,27206,5,-137.33,-996.34,57.5,26.86,5.49,1.83,24.91,36.87,0.78
3,27217,1,0.0,,,,,,,,
4,27224,0,0.0,,,,,,,,
5,27226,0,0.0,,,,,,,,
6,27227,0,0.0,,,,,,,,
0,27231,4,96.44,-576.9,798.1,21.36,14.04,16.48,-1.5,25.65,-12.55
1,27242,5,-12.21,-990.11,170.29,92.77,10.99,2.44,34.86,41.19,-4.04
2,27254,4,-143.68,-999.51,55.3,28.08,4.27,3.66,24.83,36.47,1.21
3,27266,0,0.0,,,,,,,,
4,27268,0,0.0,,,,,,,,
5,27270,0,0.0,,,,,,,,
6,27271,0,0.0,,,,,,,,
0,27275,4,94.24,-575.93,800.42,20.14,13.43,16.48,-1.14,25.43,-12.33
1,27286,5,-7.81,-991.82,170.17,92.16,12.82,0.61,35.61,40.76,-4.35
2,27302,5,-136.35,-996.7,56.15,28.08,7.32,4.27,25.15,36.45,-0.05
3,27314,0,0.0,,,,,,,,
4,27316,0,0.0,,,,,,,,
5,27317,1,0.0,,,,,,,,
6,27319,0,0.0,,,,,,,,
0,27323,4,97.41,-575.44,797.97,19.53,14.04,17.7,-1.31,25.01,-12.70
1,27334,4,-12.82,-993.41,169.07,89.72,12.21,0.0,35.61,40.76,-4.35
2,27345,3,-142.21,-996.58,55.54,27.47,-4.27,2.44,25.15,36.45,-0.05
3,27356,0,0.0,,,,,,,,
4,27358,0,0.0,,,,,,,,
5,27360,0,0.0,,,,,,,,
6,27361,0,0.0,,,,,,,,
0,27368,5,93.26,-575.81,798.71,18.92,14.04,17.09,-1.79,25.04,-12.27
1,27380,5,-6.59,-991.46,169.8,92.16,12.82,0.61,34.9,40.53,-4.33
2,27393,4,-134.89,-996.46,57.74,28.08,6.71,3.66,24.98,36.32,1.70
3,27404,0,0.0,,,,,,,,
4,27406,0,0.0,,,,,,,,
5,27407,0,0.0,,,,,,,,
6,27409,0,0.0,,,,,,,,
0,27412,5,93.99,-576.05,799.93,18.92,15.87,18.31,-1.33,25.51,-12.88
1,27424,5,-10.74,-991.09,170.41,93.38,10.99,-2.44,35.52,40.91,-4.30
2,27437,4,-141.72,-1000.37,55.91,30.52,0.61,1.22,25.13,36.50,0.93
3,27452,0,0.0,,,,,,,,
4,27454,0,0.0,,,,,,,,
5,27455,1,0.0,,,,,,,,
6,27457,0,0.0,,,,,,,,
0,27460,5,95.46,-575.56,801.15,21.97,14.65,18.92,-1.35,24.98,-12.55
1,27472,6,-9.28,-990.23,171.39,92.77,9.16,-1.22,35.1,40.55,-4.88
2,27485,4,-138.43,-996.95,55.91,31.13,8.54,0.0,24.85,36.19,1.21
3,27496,0,0.0,,,,,,,,
4,27498,0,0.0,,,,,,,,
5,27499,1,0.0,,,,,,,,
6,27501,0,0.0,,,,,,,,
0,27504,5,93.87,-574.1,799.93,18.92,16.48,17.09,-1.77,24.98,-12.63
1,27521,4,-8.3,-994.02,168.82,93.38,12.21,-0.61,35.27,40.71,-4.38
2,27533,4,-142.09,-998.78,53.34,31.13,4.27,0.0,25.57,36.44,0.77
3,27544,0,0.0,,,,,,,,
4,27546,0,0.0,,,,,,,,
5,27547,0,0.0,,,,,,,,
6,27549,0,0.0,,,,,,,,
0,27552,5,95.58,-575.93,801.39,18.92,15.87,18.31,-1.71,24.99,-11.98
1,27565,4,-12.08,-994.26,168.21,93.38,14.65,-1.83,35.94,40.58,-3.97
2,27577,4,-141.6,-998.78,55.54,32.96,2.44,1.22,25.4,36.12,1.67
3,27588,0,0.0,,,,,,,,
4,27590,0,0.0,,,,,,,,
5,27595,0,0.0,,,,,,,,
6,27597,0,0.0,,,,,,,,
0,27600,6,97.41,-574.95,797.97,19.53,16.48,18.92,-1.37,24.95,-11.85
1,27613,4,-10.38,-990.11,168.95,94.6,10.38,-4.27,35.01,40.77,-3.74
2,27625,4,-143.92,-996.22,51.51,31.13,-4.88,-0.61,25.35,36.19,1.93
3,27636,0,0.0,,,,,,,,
4,27638,0,0.0,,,,,,,,
5,27639,1,0.0,,,,,,,,
6,27641,0,0.0,,,,,,,,
0,27644,6,95.83,-574.58,802.12,17.09,15.87,16.48,-1.68,24.76,-13.27
1,27657,5,-9.64,-993.29,167.36,93.99,12.21,0.61,35.21,40.42,-3.59
2,27673,4,-136.6,-998.78,50.17,29.3,6.1,0.0,24.85,35.91,1.78
3,27684,0,0.0,,,,,,,,
4,27686,0,0.0,,,,,,,,
5,27687,0,0.0,,,,,,,,
6,27689,0,0.0,,,,,,,,
0,27693,5,97.17,-574.34,801.39,21.36,16.48,19.53,-1.26,25.34,-12.50
1,27705,4,-9.89,-990.23,167.97,93.38,12.21,-2.44,35.46,40.26,-3.52
2,27717,4,-144.41,-997.07,51.88,29.91,-1.83,0.61,25.28,36.50,2.55
3,27728,0,0.0,,,,,,,,
4,27730,0,0.0,,,,,,,,
5,27731,0,0.0,,,,,,,,
6,27734,0,0.0,,,,,,,,
0,27737,4,96.56,-574.46,802.0,17.09,15.26,18.92,-1.26,25.34,-12.50
1,27752,4,-7.81,-991.33,167.6,95.21,13.43,0.61,35.29,40.58,-4.00
2,27764,4,-130.98,-999.02,53.71,28.08,8.54,-0.61,25.23,36.32,0.81
3,27776,0,0.0,,,,,,,,
4,27777,1,0.0,,,,,,,,
5,27779,0,0.0,,,,,,,,
6,27781,0,0.0,,,,,,,,
0,27784,5,97.41,-573.85,801.03,21.36,16.48,20.75,-1.83,24.95,-12.41
1,27796,4,-10.74,-992.55,167.6,89.72,10.38,-3.66,35.57,40.93,-3.93
2,27808,4,-146.61,-998.29,48.83,28.69,-6.1,0.0,25.57,36.56,0.76
3,27824,0,0.0,,,,,,,,
4,27825,1,0.0,,,,,,,,
5,27827,0,0.0,,,,,,,,
6,27829,0,0.0,,,,,,,,
0,27832,5,93.99,-573.36,801.15,20.75,14.65,19.53,-1.21,24.96,-11.77
1,27844,4,-9.28,-993.9,167.6,92.16,10.99,-1.83,35.13,40.89,-4.24
2,27856,3,-135.13,-998.54,49.19,26.86,4.88,0.0,25.57,36.56,0.76
3,27867,0,0.0,,,,,,,,
4,27868,1,0.0,,,,,,,,
5,27870,0,0.0,,,,,,,,
6,27872,0,0.0,,,,,,,,
0,27875,5,96.19,-573.85,802.0,21.36,15.87,20.75,-1.05,24.99,-12.95
1,27887,3,-9.16,-994.02,167.72,88.5,12.82,-3.05,35.13,40.89,-4.24
2,27901,6,-143.55,-997.31,52.12,26.86,-4.27,0.0,25.31,36.50,1.79
3,27914,0,0.0,,,,,,,,
4,27915,0,0.0,,,,,,,,
5,27917,0,0.0,,,,,,,,
6,27919,0,0.0,,,,,,,,
0,27922,4,97.29,-573.61,801.51,22.58,15.26,18.92,-1.17,25.20,-12.56
1,27934,4,-9.89,-992.07,167.48,91.55,12.82,-1.22,35.14,41.38,-3.81
2,27945,6,-138.79,-997.92,50.05,26.25,0.0,0.61,25.48,36.71,0.67
3,27958,0,0.0,,,,,,,,
4,27959,0,0.0,,,,,,,,
5,27961,0,0.0,,,,,,,,
6,27966,0,0.0,,,,,,,,
0,27970,4,96.19,-572.14,800.29,20.75,17.09,20.14,-0.81,25.02,-12.16
1,27981,5,-8.79,-992.55,167.11,90.33,12.21,-3.05,34.51,40.78,-3.76
2,27994,5,-142.21,-996.83,49.44,26.25,-1.83,1.22,25.23,36.00,0.10
3,28005,1,0.0,,,,,,,,
4,28007,0,0.0,,,,,,,,
5,28009,0,0.0,,,,,,,,
6,28010,1,0.0,,,,,,,,
0,28014,4,95.21,-573.0,802.0,21.97,14.65,20.14,-1.14,25.43,-12.27
1,28026,4,-10.5,-993.04,167.6,90.33,12.82,-0.61,34.69,41.19,-4.66
2,28038,5,-142.58,-998.78,50.29,26.25,1.22,1.22,25.21,36.28,1.39
3,28053,0,0.0,,,,,,,,
4,28055,0,0.0,,,,,,,,
5,28057,0,0.0,,,,,,,,
6,28058,0,0.0,,,,,,,,
0,28062,4,97.29,-574.46,801.39,23.8,16.48,17.7,-1.16,24.77,-12.72
1,28073,6,-12.21,-991.33,167.72,90.94,14.04,-4.27,35.17,41.11,-4.39
2,28086,5,-141.97,-999.88,49.68,26.25,-7.32,1.22,25.61,36.11,0.29
3,28098,0,0.0,,,,,,,,
4,28099,0,0.0,,,,,,,,
5,28101,0,0.0,,,,,,,,
6,28102,1,0.0,,,,,,,,
0,28106,4,94.24,-572.27,800.9,18.92,17.7,19.53,-1.32,25.10,-12.48
1,28122,5,-8.54,-992.55,167.6,89.11,15.26,-1.22,35.11,40.78,-3.91
2,28134,5,-135.86,-998.78,50.29,25.63,-3.05,0.61,25.62,36.79,1.00
3,28145,1,0.0,,,,,,,,
4,28147,0,0.0,,,,,,,,
5,28149,0,0.0,,,,,,,,
6,28150,1,0.0,,,,,,,,
0,28154,4,93.99,-571.66,801.15,20.75,18.92,18.92,-0.95,24.74,-12.41
1,28167,4,-8.54,-993.41,165.65,91.55,14.04,-4.27,34.52,40.99,-3.88
2,28178,5,-147.22,-996.22,49.8,26.86,-9.77,0.61,25.55,36.32,1.16
3,28193,0,0.0,,,,,,,,
4,28195,0,0.0,,,,,,,,
5,28197,0,0.0,,,,,,,,
6,28198,0,0.0,,,,,,,,
0,28203,4,96.8,-572.51,800.29,20.14,16.48,18.31,-0.72,24.72,-13.10
1,28214,5,-10.62,-991.09,166.99,92.16,13.43,-0.61,34.52,40.27,-4.22
2,28226,5,-143.8,-1000.12,48.58,26.86,-5.49,2.44,25.6,36.58,1.07
3,28238,0,0.0,,,,,,,,
4,28239,0,0.0,,,,,,,,
5,28241,0,0.0,,,,,,,,
6,28242,1,0.0,,,,,,,,
0,28247,4,96.44,-572.27,802.37,18.92,12.21,14.65,-0.66,25.02,-12.39
1,28259,4,-10.5,-989.87,167.11,89.11,12.21,2.44,34.46,40.12,-4.03
2,28274,5,-144.65,-997.56,52.25,23.8,-6.1,4.27,25.06,36.28,1.60
3,28285,1,0.0,,,,,,,,
4,28288,0,0.0,,,,,,,,
5,28290,0,0.0,,,,,,,,
6,28291,1,0.0,,,,,,,,
0,28295,4,95.21,-573.73,803.96,22.58,9.77,14.65,-0.82,25.12,-12.27
1,28306,5,-10.74,-991.82,167.48,89.72,13.43,3.66,35.02,40.61,-3.96
2,28318,5,-139.16,-999.63,48.34,26.86,2.44,4.27,24.74,35.97,1.59
3,28329,2,0.0,,,,,,,,
4,28332,0,0.0,,,,,,,,
5,28334,0,0.0,,,,,,,,
6,28335,1,0.0,,,,,,,,
0,28343,4,89.36,-572.75,803.34,21.36,15.26,17.7,-1.18,24.93,-12.04
1,28354,5,-8.06,-990.36,167.36,90.94,12.82,-1.22,34.91,40.00,-4.55
2,28366,4,-141.85,-998.05,51.15,28.08,14.65,4.27,24.91,36.35,1.31
3,28378,1,0.0,,,,,,,,
4,28380,0,0.0,,,,,,,,
5,28382,0,0.0,,,,,,,,
6,28383,0,0.0,,,,,,,,
0,28387,4,95.7,-570.56,801.39,21.36,17.7,20.14,-1.44,24.73,-12.18
1,28398,4,-8.42,-994.02,167.36,91.55,14.04,0.0,34.91,40.00,-4.55
2,28409,3,-137.45,-998.9,47.85,27.47,12.82,4.88,24.91,36.35,1.31
3,28424,0,0.0,,,,,,,,
4,28426,0,0.0,,,,,,,,
5,28428,0,0.0,,,,,,,,
6,28429,0,0.0,,,,,,,,
0,28433,4,96.8,-574.22,802.37,23.8,13.43,18.31,-1.14,24.94,-13.15
1,28444,5,-10.99,-993.77,165.89,90.33,11.6,-1.83,34.59,39.99,-3.53
2,28456,5,-142.82,-997.31,50.42,25.02,0.61,3.05,24.73,36.17,1.06
3,28468,0,0.0,,,,,,,,
4,28470,0,0.0,,,,,,,,
5,28472,0,0.0,,,,,,,,
6,28473,0,0.0,,,,,,,,
0,28477,4,94.24,-572.02,801.64,22.58,15.26,18.31,-1.76,24.85,-12.34
1,28492,5,-7.2,-992.68,166.99,90.94,14.04,0.61,35.07,40.26,-4.88
2,28505,4,-137.94,-997.8,49.32,26.25,7.93,4.88,25.63,36.13,1.94
3,28516,0,0.0,,,,,,,,
4,28518,0,0.0,,,,,,,,
5,28519,0,0.0,,,,,,,,
6,28521,0,0.0,,,,,,,,
0,28524,4,97.29,-571.78,803.59,23.8,15.26,18.92,-1.76,24.85,-12.34
1,28535,4,-8.42,-992.92,166.99,92.77,12.21,-1.22,35.34,39.81,-4.08
2,28548,4,-140.5,-998.17,50.66,25.02,5.49,4.27,25.28,36.19,1.83
3,28559,0,0.0,,,,,,,,
4,28565,0,0.0,,,,,,,,
5,28566,0,0.0,,,,,,,,
6,28568,0,0.0,,,,,,,,
0,28571,5,93.38,-571.66,802.12,22.58,15.87,17.7,-1.66,25.39,-11.80
1,28583,5,-7.08,-992.07,165.89,91.55,12.82,-1.83,34.55,39.38,-3.85
2,28596,4,-138.92,-996.83,48.46,26.86,4.88,3.66,24.58,36.34,1.48
3,28607,0,0.0,,,,,,,,
4,28609,0,0.0,,,,,,,,
5,28610,0,0.0,,,,,,,,
6,28612,0,0.0,,,,,,,,
0,28615,5,94.85,-573.0,802.37,21.97,16.48,15.87,-0.85,24.94,-11.15
1,28627,5,-7.81,-990.72,166.75,90.94,14.04,0.0,35.35,40.41,-4.09
2,28643,5,-141.97,-998.78,48.95,25.02,0.61,4.27,24.74,36.63,2.60
3,28655,0,0.0,,,,,,,,
4,28656,0,0.0,,,,,,,,
5,28658,0,0.0,,,,,,,,
6,28660,0,0.0,,,,,,,,
0,28663,4,96.68,-573.24,802.12,24.41,14.04,19.53,-1.57,24.98,-12.52
1,28676,4,-8.91,-992.68,166.14,89.11,12.82,-4.27,35.34,39.79,-3.61
2,28688,4,-144.41,-999.02,48.46,25.63,-0.61,4.27,25.16,36.50,2.45
3,28699,0,0.0,,,,,,,,
4,28701,0,0.0,,,,,,,,
5,28702,0,0.0,,,,,,,,
6,28704,0,0.0,,,,,,,,
0,28707,5,94.6,-573.73,801.88,20.75,15.87,16.48,-1.35,24.84,-11.91
1,28724,4,-5.62,-991.46,166.63,88.5,13.43,1.22,34.84,39.77,-4.55
2,28735,5,-136.96,-996.95,50.54,25.63,2.44,6.1,25.27,36.13,1.81
3,28747,0,0.0,,,,,,,,
4,28748,0,0.0,,,,,,,,
5,28750,0,0.0,,,,,,,,
6,28752,0,0.0,,,,,,,,
0,28755,5,96.92,-572.51,801.76,20.14,14.65,18.92,-1.31,24.54,-12.18
1,28768,4,-7.69,-992.92,167.24,90.94,12.82,2.44,35.08,39.62,-3.86
2,28779,5,-140.14,-999.76,50.9,23.8,-0.61,6.1,24.95,36.36,1.65
3,28795,0,0.0,,,,,,,,
4,28796,0,0.0,,,,,,,,
5,28798,0,0.0,,,,,,,,
6,28801,0,0.0,,,,,,,,
0,28804,4,93.51,-572.63,804.44,24.41,14.04,17.7,-1.35,25.43,-13.06
1,28816,4,-7.32,-993.9,166.14,89.11,12.21,-2.44,35.13,39.23,-3.43
2,28827,5,-133.18,-1000.61,53.59,25.63,10.38,5.49,25.31,36.44,1.77
3,28839,0,0.0,,,,,,,,
4,28840,0,0.0,,,,,,,,
5,28843,0,0.0,,,,,,,,
6,28845,0,0.0,,,,,,,,
0,28848,4,102.91,-570.56,800.17,26.86,20.75,21.36,-1.06,25.11,-12.39
1,28864,4,-14.16,-992.92,166.99,87.89,12.21,-5.49,35.46,39.61,-3.23
2,28875,5,-138.18,-995.61,49.32,29.91,8.54,5.49,25.43,36.47,1.31
3,28888,0,0.0,,,,,,,,
4,28889,0,0.0,,,,,,,,
5,28891,0,0.0,,,,,,,,
6,28893,0,0.0,,,,,,,,
0,28896,4,93.14,-571.78,800.54,22.58,17.7,19.53,-1.34,24.82,-12.55
1,28908,4,-4.76,-991.09,166.87,92.16,10.38,-5.49,35.03,40.09,-4.46
2,28919,5,-135.01,-996.95,47.24,28.69,14.65,1.83,25.78,36.43,0.42
3,28932,0,0.0,,,,,,,,
4,28933,1,0.0,,,,,,,,
5,28939,0,0.0,,,,,,,,
6,28941,0,0.0,,,,,,,,
0,28944,4,96.31,-573.49,802.61,23.8,14.65,20.14,-1.01,24.73,-12.06
1,28956,3,-10.62,-992.68,167.24,90.33,10.38,-2.44,35.03,40.09,-4.46
2,28966,5,-140.63,-998.66,48.46,29.3,0.0,1.22,25.78,36.43,0.42
3,28978,0,0.0,,,,,,,,
4,28979,0,0.0,,,,,,,,
5,28981,0,0.0,,,,,,,,
6,28983,0,0.0,,,,,,,,
0,28986,4,93.87,-573.36,802.98,27.47,12.82,21.36,-0.89,24.69,-12.26
1,28998,4,-8.42,-994.02,166.38,91.55,9.16,-4.27,35.72,40.31,-4.80
2,29014,5,-134.28,-1000.49,49.44,26.86,10.99,0.61,25.81,36.27,0.60
3,29026,0,0.0,,,,,,,,
4,29027,0,0.0,,,,,,,,
5,29029,0,0.0,,,,,,,,
6,29030,1,0.0,,,,,,,,
0,29034,4,93.87,-573.97,802.12,25.63,19.53,23.8,-0.84,24.72,-12.70
1,29046,4,-9.03,-992.68,166.5,91.55,10.38,-6.71,35.42,40.30,-4.86
2,29058,5,-137.08,-997.68,50.05,30.52,12.82,0.0,25.85,36.71,0.94
3,29070,0,0.0,,,,,,,,
4,29071,0,0.0,,,,,,,,
5,29073,0,0.0,,,,,,,,
6,29075,0,0.0,,,,,,,,
0,29078,4,97.53,-574.1,801.03,21.97,18.31,21.97,-0.9,25.43,-13.02
1,29102,5,-8.18,-992.19,166.99,91.55,10.99,-4.27,35.19,40.54,-4.15
2,29114,4,-134.52,-998.78,49.32,31.74,17.09,0.61,25.29,36.28,1.65
3,29125,0,0.0,,,,,,,,
4,29127,0,0.0,,,,,,,,
5,29129,0,0.0,,,,,,,,
6,29130,0,0.0,,,,,,,,
0,29134,4,96.19,-573.12,802.37,23.8,17.7,23.19,-0.27,24.54,-12.93
1,29146,5,-10.86,-992.92,166.02,89.11,12.21,-5.49,34.68,40.25,-4.03
2,29158,5,-140.99,-998.66,47.97,28.69,8.54,-0.61,25.15,36.69,0.37
3,29173,1,0.0,,,,,,,,
4,29175,0,0.0,,,,,,,,
5,29177,0,0.0,,,,,,,,
6,29178,0,0.0,,,,,,,,
0,29182,5,98.63,-575.2,801.27,23.8,18.31,24.41,-0.15,24.71,-12.35
1,29194,5,-12.21,-992.31,167.24,91.55,10.99,-6.1,35.35,40.50,-3.77
2,29206,5,-136.96,-997.19,47.0,31.13,16.48,-1.22,25.1,37.10,1.35
3,29218,0,0.0,,,,,,,,
4,29219,0,0.0,,,,,,,,
5,29221,0,0.0,,,,,,,,
6,29223,0,0.0,,,,,,,,
0,29227,4,98.14,-574.34,800.78,20.14,18.31,21.97,-0.42,25.43,-12.84
1,29239,4,-8.18,-993.53,165.65,92.77,10.99,-2.44,34.77,39.75,-4.02
2,29254,5,-139.16,-997.92,45.53,31.13,4.88,-1.22,25.45,36.13,1.26
3,29266,0,0.0,,,,,,,,
4,29267,0,0.0,,,,,,,,
5,29270,0,0.0,,,,,,,,
6,29272,0,0.0,,,,,,,,
0,29275,4,101.44,-573.85,801.15,23.19,17.7,21.97,-1.0,24.55,-12.84
1,29287,4,-12.45,-995.97,165.77,88.5,12.82,-3.05,34.11,39.23,-4.52
2,29298,5,-139.89,-1000.49,45.65,28.69,6.71,0.0,24.96,36.65,1.71
3,29310,0,0.0,,,,,,,,
4,29312,0,0.0,,,,,,,,
5,29314,0,0.0,,,,,,,,
6,29319,1,0.0,,,,,,,,
0,29323,4,98.88,-573.61,799.32,22.58,20.14,23.19,-0.52,25.11,-12.83
1,29335,4,-10.99,-991.33,166.75,92.16,12.82,-4.27,34.62,40.47,-4.24
2,29346,5,-133.42,-996.7,44.31,29.3,1.22,-1.22,25.21,36.98,1.43
3,29359,0,0.0,,,,,,,,
4,29360,0,0.0,,,,,,,,
5,29362,0,0.0,,,,,,,,
6,29364,0,0.0,,,,,,,,
0,29367,4,99.24,-573.24,801.51,21.97,18.31,21.36,-0.2,24.78,-12.57
1,29379,4,-13.43,-992.31,166.87,89.72,12.21,-1.83,34.4,40.63,-3.65
2,29394,6,-140.87,-1000.37,43.82,29.3,2.44,0.0,25.43,36.72,2.14
3,29407,0,0.0,,,,,,,,
4,29408,0,0.0,,,,,,,,
5,29410,0,0.0,,,,,,,,
6,29412,0,0.0,,,,,,,,
0,29415,4,98.88,-575.07,799.93,21.97,17.09,20.14,-0.26,24.52,-12.35
1,29427,4,-12.7,-990.97,167.24,92.77,12.21,-1.83,34.96,40.89,-3.55
2,29438,6,-136.84,-998.41,43.95,30.52,3.05,-0.61,25.42,36.29,1.89
3,29451,0,0.0,,,,,,,,
4,29452,1,0.0,,,,,,,,
5,29454,0,0.0,,,,,,,,
6,29456,0,0.0,,,,,,,,
0,29459,4,98.02,-572.88,801.27,18.31,16.48,21.36,-0.26,24.52,-12.35
1,29474,4,-12.82,-993.9,165.28,91.55,12.82,-1.83,34.92,40.83,-4.03
2,29486,5,-139.04,-1000.49,44.07,28.69,1.83,-3.05,25.38,36.05,1.71
3,29498,0,0.0,,,,,,,,
4,29499,1,0.0,,,,,,,,
5,29501,0,0.0,,,,,,,,
6,29503,0,0.0,,,,,,,,
0,29506,5,101.81,-573.61,801.64,22.58,15.26,20.75,-0.33,24.76,-13.49
1,29518,4,-12.33,-993.41,165.41,90.94,12.21,-1.83,34.91,40.43,-3.53
2,29531,4,-137.82,-1000.61,41.75,29.3,-6.71,0.61,24.56,35.83,1.39
3,29546,0,0.0,,,,,,,,
4,29548,0,0.0,,,,,,,,
5,29549,0,0.0,,,,,,,,
6,29551,0,0.0,,,,,,,,
0,29554,5,98.51,-573.85,802.49,23.19,16.48,21.36,-0.67,24.69,-12.12
1,29566,5,-13.31,-993.9,165.41,90.94,12.21,-2.44,35.13,40.32,-3.55
2,29579,4,-136.35,-999.02,45.04,26.86,0.0,1.83,25.13,36.41,1.39
3,29590,0,0.0,,,,,,,,
4,29592,0,0.0,,,,,,,,
5,29593,0,0.0,,,,,,,,
6,29595,0,0.0,,,,,,,,
0,29598,5,99.0,-573.73,798.46,21.97,15.26,21.36,-0.68,24.91,-12.37
1,29611,3,-11.84,-991.46,166.02,91.55,12.21,-4.27,35.13,40.32,-3.55
2,29626,3,-140.99,-998.05,44.43,27.47,-0.61,-0.61,25.13,36.41,1.39
3,29636,0,0.0,,,,,,,,
4,29638,0,0.0,,,,,,,,
5,29639,0,0.0,,,,,,,,
6,29641,0,0.0,,,,,,,,
0,29644,5,99.73,-573.73,802.73,25.02,12.82,23.19,-1.44,25.32,-12.46
1,29657,5,-16.36,-994.51,164.92,92.77,12.21,-3.05,35.06,40.17,-4.27
2,29669,4,-139.53,-999.88,42.6,28.69,-1.83,-1.22,24.69,36.30,2.47
3,29680,0,0.0,,,,,,,,
4,29682,0,0.0,,,,,,,,
5,29684,0,0.0,,,,,,,,
6,29689,0,0.0,,,,,,,,
0,29692,6,98.51,-571.53,799.93,20.14,16.48,21.36,-1.17,24.50,-12.39
1,29705,5,-11.96,-992.07,165.16,92.16,9.77,-5.49,34.64,40.59,-4.43
2,29717,4,-140.14,-998.66,41.14,31.13,3.05,-0.61,24.57,36.93,1.94
3,29728,0,0.0,,,,,,,,
4,29730,0,0.0,,,,,,,,
5,29731,1,0.0,,,,,,,,
6,29733,0,0.0,,,,,,,,
0,29737,5,99.73,-574.71,802.12,21.97,15.26,21.97,-1.35,24.82,-12.67
1,29749,5,-14.16,-992.55,164.43,92.16,10.38,-4.27,35.22,40.03,-3.58
2,29761,4,-141.48,-999.51,43.09,29.91,1.22,0.0,24.17,36.96,1.42
3,29777,0,0.0,,,,,,,,
4,29779,0,0.0,,,,,,,,
5,29780,0,0.0,,,,,,,,
6,29783,0,0.0,,,,,,,,
0,29786,5,101.68,-571.41,803.22,21.97,16.48,22.58,-1.17,25.42,-12.46
1,29798,5,-15.63,-994.51,165.41,90.33,11.6,-4.27,34.55,40.05,-3.96
2,29810,4,-140.26,-997.56,42.85,30.52,-3.66,-3.66,24.73,36.74,2.65
3,29821,0,0.0,,,,,,,,
4,29824,0,0.0,,,,,,,,
5,29826,0,0.0,,,,,,,,
6,29827,0,0.0,,,,,,,,
0,29831,4,99.37,-572.27,800.29,19.53,17.7,23.19,-0.99,24.63,-12.30
1,29846,5,-15.75,-994.26,164.55,95.21,13.43,-4.27,35.02,40.17,-4.14
2,29858,4,-140.99,-997.8,39.31,31.13,0.61,-0.61,24.85,36.58,0.57
3,29870,0,0.0,,,,,,,,
4,29872,0,0.0,,,,,,,,
5,29874,0,0.0,,,,,,,,
6,29875,0,0.0,,,,,,,,
0,29879,4,100.1,-572.39,801.15,19.53,15.26,21.36,-0.88,24.69,-12.30
1,29890,5,-12.33,-992.07,164.43,90.94,10.38,-0.61,34.59,39.98,-4.65
2,29902,5,-137.33,-1000.0,40.77,34.18,1.22,-1.83,24.48,36.89,1.79
3,29918,0,0.0,,,,,,,,
4,29920,0,0.0,,,,,,,,
5,29922,0,0.0,,,,,,,,
6,29923,0,0.0,,,,,,,,
0,29927,4,101.07,-572.75,801.76,17.09,18.92,24.41,-1.33,24.82,-12.29
1,29938,5,-13.18,-993.16,164.67,93.99,10.99,-3.66,34.79,40.43,-4.17
2,29950,6,-144.65,-996.46,41.99,36.01,0.0,-2.44,24.66,36.49,2.03
3,29963,0,0.0,,,,,,,,
4,29964,0,0.0,,,,,,,,
5,29966,0,0.0,,,,,,,,
6,29967,1,0.0,,,,,,,,
0,29971,4,99.73,-569.09,802.49,13.43,17.7,22.58,-0.54,24.94,-13.57
1,29983,4,-13.55,-994.87,164.06,93.38,14.04,-3.66,35.07,40.41,-3.22
2,29999,5,-136.72,-998.05,34.18,39.06,4.88,-3.66,24.85,36.78,2.47
3,30010,1,0.0,,,,,,,,
4,30012,0,0.0,,,,,,,,
5,30014,0,0.0,,,,,,,,
6,30015,1,0.0,,,,,,,,
0,30019,4,105.1,-572.75,800.29,19.53,19.53,24.41,-1.28,24.34,-12.89
1,30031,4,-13.67,-992.31,164.55,90.94,12.82,-3.05,35.62,39.58,-4.65
2,30043,5,-148.56,-998.66,34.3,36.62,1.22,-1.83,24.94,36.95,3.03
3,30055,0,0.0,,,,,,,,
4,30056,0,0.0,,,,,,,,
5,30058,0,0.0,,,,,,,,
6,30063,0,0.0,,,,,,,,
0,30067,4,104.74,-568.36,803.1,17.7,14.65,21.36,-0.55,24.38,-13.10
1,30080,4,-13.55,-993.77,163.33,93.38,13.43,-0.61,35.18,40.28,-4.21
2,30091,5,-137.94,-1000.37,34.06,34.18,6.71,-1.22,25.54,36.91,2.01
3,30103,0,0.0,,,,,,,,
4,30104,0,0.0,,,,,,,,
5,30106,0,0.0,,,,,,,,
6,30108,0,0.0,,,,,,,,
0,30111,4,103.52,-570.31,802.0,20.75,17.09,23.19,-0.07,24.23,-12.99
1,30124,3,-14.04,-993.41,164.55,87.89,12.82,-2.44,35.18,40.28,-4.21
2,30134,5,-146.48,-997.07,33.45,31.74,-0.61,-1.83,24.89,37.01,1.29
3,30150,0,0.0,,,,,,,,
4,30151,0,0.0,,,,,,,,
5,30153,0,0.0,,,,,,,,
6,30155,0,0.0,,,,,,,,
0,30158,4,102.54,-570.19,800.78,19.53,15.87,20.14,0.2,24.15,-12.52
1,30171,4,-13.79,-993.04,163.21,93.38,12.21,-0.61,34.75,40.19,-3.86
2,30182,4,-141.36,-1000.37,33.69,34.18,6.1,0.0,24.89,37.01,1.29
3,30193,0,0.0,,,,,,,,
4,30194,0,0.0,,,,,,,,
5,30196,0,0.0,,,,,,,,
6,30198,0,0.0,,,,,,,,
0,30201,4,101.81,-569.82,802.49,19.53,16.48,21.97,-0.68,24.39,-13.72
1,30218,4,-14.28,-991.58,163.82,91.55,13.43,-4.27,35.13,40.33,-3.80
2,30229,5,-143.43,-997.92,34.18,33.57,0.61,-1.22,24.83,36.50,1.59
3,30241,0,0.0,,,,,,,,
4,30242,0,0.0,,,,,,,,
5,30244,0,0.0,,,,,,,,
6,30246,0,0.0,,,,,,,,
0,30249,4,102.05,-569.95,801.64,21.36,17.09,23.8,-0.68,24.39,-13.72
1,30261,4,-14.16,-993.29,163.21,92.77,11.6,-2.44,35.55,40.45,-4.49
2,30273,4,-144.29,-999.51,30.4,36.01,6.1,-0.61,25.62,36.52,1.05
3,30288,0,0.0,,,,,,,,
4,30289,0,0.0,,,,,,,,
5,30291,0,0.0,,,,,,,,
6,30294,0,0.0,,,,,,,,
0,30297,4,105.59,-568.85,801.51,19.53,17.7,23.8,-0.32,24.44,-13.00
1,30309,4,-15.63,-993.77,164.31,92.77,12.21,-4.88,34.94,40.21,-4.72
2,30320,5,-145.02,-997.56,30.15,30.52,-1.83,0.61,24.98,36.95,2.00
3,30332,0,0.0,,,,,,,,
4,30333,0,0.0,,,,,,,,
5,30336,0,0.0,,,,,,,,
6,30338,0,0.0,,,,,,,,
0,30341,4,103.15,-570.07,801.64,18.92,14.65,20.14,-0.01,24.46,-12.37
1,30353,4,-14.16,-992.92,162.84,91.55,12.82,-0.61,35.5,39.87,-4.24
2,30368,5,-141.24,-997.31,30.88,31.74,3.05,1.22,25.42,36.15,2.40
3,30381,0,0.0,,,,,,,,
4,30382,0,0.0,,,,,,,,
5,30384,0,0.0,,,,,,,,
6,30386,0,0.0,,,,,,,,
0,30389,4,105.47,-569.82,803.22,18.31,14.04,20.75,-0.22,24.24,-12.87
1,30401,4,-15.38,-997.19,161.62,93.99,12.21,-0.61,34.86,40.05,-3.60
2,30412,5,-145.75,-1000.49,28.2,34.18,2.44,3.05,24.85,36.79,2.08
3,30425,0,0.0,,,,,,,,
4,30426,1,0.0,,,,,,,,
5,30428,0,0.0,,,,,,,,
6,30434,0,0.0,,,,,,,,
0,30437,4,102.29,-570.43,802.0,18.92,15.87,23.19,0.62,24.00,-12.67
1,30449,4,-15.38,-993.29,162.35,92.77,10.99,-3.66,34.9,40.17,-3.72
2,30460,6,-144.78,-996.95,29.79,39.06,10.99,1.22,24.91,36.88,2.55
3,30473,0,0.0,,,,,,,,
4,30474,1,0.0,,,,,,,,
5,30476,0,0.0,,,,,,,,
6,30478,0,0.0,,,,,,,,
0,30481,4,103.27,-567.87,803.83,17.09,15.87,21.97,-0.24,24.35,-12.54
1,30493,4,-16.24,-996.22,162.23,96.44,14.04,-2.44,35.34,39.87,-4.59
2,30505,5,-139.16,-1000.49,27.59,39.67,7.93,2.44,25.18,36.58,3.42
3,30521,0,0.0,,,,,,,,
4,30522,1,0.0,,,,,,,,
5,30524,0,0.0,,,,,,,,
6,30526,0,0.0,,,,,,,,
0,30529,5,107.54,-568.24,803.96,17.7,17.7,23.8,0.44,24.13,-13.04
1,30541,4,-11.72,-992.55,161.62,93.99,12.21,-2.44,35.06,40.31,-4.04
2,30554,4,-134.89,-1000.0,23.93,45.78,12.82,-2.44,24.91,36.79,3.22
3,30565,0,0.0,,,,,,,,
4,30567,0,0.0,,,,,,,,
5,30568,0,0.0,,,,,,,,
6,30570,0,0.0,,,,,,,,
0,30573,5,110.11,-565.31,803.34,17.09,18.31,25.63,-0.12,24.12,-12.28
1,30589,5,-12.57,-988.53,163.94,93.99,14.04,-2.44,34.42,40.65,-4.70
2,30602,4,-139.04,-1000.49,26.49,45.78,12.21,0.0,25.0,36.33,2.66
3,30613,0,0.0,,,,,,,,
4,30615,0,0.0,,,,,,,,
5,30616,0,0.0,,,,,,,,
6,30618,0,0.0,,,,,,,,
0,30621,5,104.49,-564.58,804.32,18.31,16.48,25.02,-0.29,23.90,-11.91
1,30633,5,-16.48,-995.36,160.77,91.55,12.21,-4.88,34.57,40.34,-3.38
2,30646,4,-143.07,-1000.49,20.14,39.06,-2.44,-1.22,25.07,35.93,2.92
3,30661,0,0.0,,,,,,,,
4,30663,0,0.0,,,,,,,,
5,30664,1,0.0,,,,,,,,
6,30666,0,0.0,,,,,,,,
0,30669,5,106.69,-568.12,802.61,20.75,15.26,22.58,-0.55,24.23,-12.87
1,30682,4,-16.72,-992.43,162.11,93.38,11.6,-1.83,34.57,40.34,-3.38
2,30693,4,-147.71,-999.88,20.63,36.01,9.16,1.83,24.55,36.23,1.98
3,30704,0,0.0,,,,,,,,
4,30706,0,0.0,,,,,,,,
5,30708,0,0.0,,,,,,,,
6,30709,0,0.0,,,,,,,,
0,30713,4,103.64,-566.28,803.59,16.48,14.65,20.75,-0.29,23.93,-12.67
1,30725,5,-12.45,-993.41,161.38,93.38,11.6,0.0,34.66,40.63,-2.87
2,30741,4,-138.92,-999.63,20.63,32.35,-2.44,-0.61,25.24,36.39,2.17
3,30752,0,0.0,,,,,,,,
4,30754,0,0.0,,,,,,,,
5,30756,0,0.0,,,,,,,,
6,30757,0,0.0,,,,,,,,
0,30761,5,106.32,-566.53,806.4,22.58,16.48,23.19,0.2,24.00,-12.70
1,30773,5,-16.24,-992.92,161.62,90.33,12.21,-1.83,35.06,40.12,-4.36
2,30785,4,-145.51,-997.19,20.75,34.18,1.83,-0.61,25.24,36.39,2.17
3,30795,1,0.0,,,,,,,,
4,30797,0,0.0,,,,,,,,
5,30799,0,0.0,,,,,,,,
6,30804,0,0.0,,,,,,,,
0,30809,4,103.03,-564.58,804.57,20.75,15.87,21.97,-0.09,23.68,-12.39
1,30820,5,-15.5,-997.92,158.45,95.21,10.99,-3.66,34.51,40.67,-3.56
2,30832,5,-140.14,-999.39,16.48,31.74,0.0,0.0,24.89,36.28,2.04
3,30843,0,0.0,,,,,,,,
4,30845,0,0.0,,,,,,,,
5,30848,0,0.0,,,,,,,,
6,30849,0,0.0,,,,,,,,
0,30853,4,104.37,-566.28,806.15,19.53,18.31,21.36,0.07,23.73,-12.56
1,30864,5,-14.28,-992.55,161.99,91.55,14.65,-1.83,34.8,40.72,-4.15
2,30876,5,-143.19,-999.76,16.24,32.96,8.54,1.83,24.73,36.60,3.34
3,30892,0,0.0,,,,,,,,
4,30894,0,0.0,,,,,,,,
5,30895,1,0.0,,,,,,,,
6,30897,0,0.0,,,,,,,,
0,30900,5,105.47,-566.41,805.05,21.97,15.87,21.36,0.33,23.43,-12.27
1,30912,5,-15.38,-994.26,161.62,91.55,13.43,0.0,34.57,39.75,-4.39
2,30924,4,-141.11,-998.29,17.09,32.35,0.61,-0.61,24.56,37.00,1.57
3,30936,0,0.0,,,,,,,,
4,30938,0,0.0,,,,,,,,
5,30940,0,0.0,,,,,,,,
6,30941,0,0.0,,,,,,,,
0,30945,4,102.42,-566.04,805.42,20.75,16.48,23.19,-0.05,24.30,-12.87
1,30960,4,-14.77,-996.7,160.64,88.5,12.21,-3.05,34.85,40.66,-4.41
2,30972,5,-140.99,-1000.49,15.14,32.96,0.61,0.0,25.01,36.46,3.78
3,30984,0,0.0,,,,,,,,
4,30986,0,0.0,,,,,,,,
5,30987,1,0.0,,,,,,,,
6,30989,0,0.0,,,,,,,,
0,30992,5,104.86,-566.53,804.57,18.92,16.48,20.75,-0.79,24.18,-12.68
1,31004,5,-13.06,-992.19,162.23,90.94,13.43,-1.22,34.84,40.65,-4.86
2,31016,5,-147.46,-997.44,18.8,30.52,1.83,1.83,24.46,36.22,2.28
3,31032,0,0.0,,,,,,,,
4,31034,0,0.0,,,,,,,,
5,31035,0,0.0,,,,,,,,
6,31037,0,0.0,,,,,,,,
0,31056,6,105.71,-566.04,805.54,18.31,19.53,21.36,-0.32,24.28,-12.59
1,31071,4,-13.43,-993.41,161.87,90.33,12.82,-3.66,34.53,40.25,-4.17
2,31083,4,-147.46,-996.22,15.5,32.96,-0.61,-1.22,24.76,36.17,3.70
3,31094,0,0.0,,,,,,,,
4,31096,0,0.0,,,,,,,,
5,31097,1,0.0,,,,,,,,
6,31099,0,0.0,,,,,,,,
0,31104,4,107.06,-564.33,805.91,20.14,21.97,23.19,-0.21,24.11,-12.85
1,31115,5,-16.24,-997.07,159.79,89.11,12.82,-3.05,35.0,40.56,-4.21
2,31130,4,-142.21,-999.88,11.84,32.96,0.0,3.05,24.89,36.62,2.87
3,31141,0,0.0,,,,,,,,
4,31143,0,0.0,,,,,,,,
5,31144,0,0.0,,,,,,,,
6,31147,0,0.0,,,,,,,,
0,31150,5,109.01,-565.31,801.88,20.14,18.92,21.97,0.37,24.13,-12.27
1,31162,5,-13.67,-990.84,160.89,92.16,11.6,-3.66,34.74,40.43,-3.83
2,31174,4,-148.32,-996.58,13.67,34.18,7.93,0.61,24.5,35.38,3.61
3,31185,0,0.0,,,,,,,,
4,31187,0,0.0,,,,,,,,
5,31188,2,0.0,,,,,,,,
6,31195,0,0.0,,,,,,,,
0,31198,5,104.86,-564.33,805.66,19.53,14.65,21.97,0.2,23.72,-13.54
1,31210,4,-15.01,-992.92,160.52,90.33,10.99,-1.83,35.39,40.60,-4.38
2,31222,4,-140.14,-997.44,9.64,32.35,7.93,1.22,24.38,36.34,3.38
3,31234,0,0.0,,,,,,,,
4,31236,0,0.0,,,,,,,,
5,31237,0,0.0,,,,,,,,
6,31239,0,0.0,,,,,,,,
0,31242,5,109.25,-565.06,803.47,21.36,15.26,23.8,-0.23,24.12,-12.00
1,31254,5,-18.43,-994.02,159.79,91.55,10.38,-4.27,35.13,40.00,-3.81
2,31266,4,-146.24,-1000.37,9.89,31.13,-0.61,1.83,24.66,36.00,3.03
3,31282,0,0.0,,,,,,,,
4,31284,0,0.0,,,,,,,,
5,31285,0,0.0,,,,,,,,
6,31287,0,0.0,,,,,,,,
0,31290,5,104.13,-564.09,807.5,20.75,15.87,20.75,0.06,24.27,-13.37
1,31302,4,-13.79,-994.02,160.89,92.16,12.21,0.61,34.92,40.26,-3.41
2,31314,5,-141.85,-999.39,10.13,28.69,6.1,1.83,24.85,36.44,3.13
3,31326,0,0.0,,,,,,,,
4,31328,0,0.0,,,,,,,,
5,31329,0,0.0,,,,,,,,
6,31331,0,0.0,,,,,,,,
0,31334,5,106.81,-564.45,803.34,18.92,16.48,20.14,0.43,24.12,-12.61
1,31350,4,-15.63,-993.9,160.64,92.77,14.04,0.0,34.7,40.64,-4.22
2,31363,4,-144.9,-998.66,9.28,31.13,-3.05,1.22,24.48,36.83,3.50
3,31374,0,0.0,,,,,,,,
4,31376,0,0.0,,,,,,,,
5,31377,0,0.0,,,,,,,,
6,31379,0,0.0,,,,,,,,
0,31382,5,105.96,-562.99,805.79,19.53,12.82,20.75,0.43,24.66,-12.56
1,31394,4,-16.48,-993.41,158.81,89.72,10.38,-0.61,35.29,40.28,-4.22
2,31407,4,-138.31,-1000.0,9.64,29.91,9.16,1.83,24.51,35.94,2.97
3,31418,0,0.0,,,,,,,,
4,31424,0,0.0,,,,,,,,
5,31425,0,0.0,,,,,,,,
6,31427,0,0.0,,,,,,,,
0,31430,4,107.3,-564.09,804.2,20.75,17.7,21.36,0.43,24.66,-12.56
1,31441,3,-14.04,-993.41,160.89,92.16,14.65,-1.83,35.29,40.28,-4.22
2,31453,4,-143.43,-997.07,8.42,32.35,3.66,0.0,24.54,36.82,2.55
3,31464,0,0.0,,,,,,,,
4,31466,0,0.0,,,,,,,,
5,31467,0,0.0,,,,,,,,
6,31469,0,0.0,,,,,,,,
0,31472,5,108.52,-564.45,805.79,18.92,13.43,20.14,0.23,24.02,-13.60
1,31484,5,-17.82,-994.75,159.67,91.55,14.04,0.0,34.89,40.45,-3.65
2,31500,5,-139.4,-1000.61,6.47,28.69,7.93,3.05,24.17,36.44,3.00
3,31512,0,0.0,,,,,,,,
4,31513,0,0.0,,,,,,,,
5,31515,0,0.0,,,,,,,,
6,31517,0,0.0,,,,,,,,
0,31520,4,106.2,-562.99,805.54,20.75,17.7,21.97,0.31,23.88,-13.67
1,31533,4,-13.67,-996.09,158.69,90.94,12.21,-4.27,34.73,40.70,-4.43
2,31544,4,-146.36,-998.05,8.06,28.69,1.83,2.44,24.17,36.44,3.00
3,31555,0,0.0,,,,,,,,
4,31556,0,0.0,,,,,,,,
5,31558,0,0.0,,,,,,,,
6,31560,0,0.0,,,,,,,,
0,31567,4,106.69,-563.72,806.03,20.75,15.87,21.36,0.45,24.40,-12.92
1,31580,4,-15.99,-993.65,160.03,92.77,13.43,-1.83,35.08,40.76,-3.23
2,31591,5,-141.48,-999.15,7.69,28.69,7.32,3.66,24.54,36.65,2.73
3,31603,0,0.0,,,,,,,,
4,31604,0,0.0,,,,,,,,
5,31606,0,0.0,,,,,,,,
6,31608,0,0.0,,,,,,,,
0,31611,5,104.49,-563.6,807.13,21.36,14.65,20.75,0.38,23.66,-13.17
1,31624,4,-16.48,-994.51,160.77,92.77,14.04,-1.83,35.01,40.37,-2.75
2,31635,5,-139.04,-1000.49,6.59,28.69,3.05,1.22,24.32,36.33,2.51
3,31650,1,0.0,,,,,,,,
4,31652,0,0.0,,,,,,,,
5,31654,0,0.0,,,,,,,,
6,31655,1,0.0,,,,,,,,
0,31660,4,108.28,-563.23,806.03,20.75,18.31,21.97,0.6,24.41,-13.89
1,31672,4,-17.09,-994.26,160.4,90.33,12.82,-3.66,34.88,40.67,-4.05
2,31683,5,-145.75,-1000.49,4.03,28.08,-0.61,1.83,24.52,36.51,3.17
3,31695,0,0.0,,,,,,,,
4,31696,0,0.0,,,,,,,,
5,31698,0,0.0,,,,,,,,
6,31700,0,0.0,,,,,,,,
0,31704,4,106.93,-563.35,805.66,20.14,15.26,20.75,-0.22,23.50,-13.96
1,31720,4,-14.4,-993.77,159.06,92.16,13.43,-0.61,34.9,40.70,-4.11
2,31731,5,-140.99,-998.9,5.25,25.02,5.49,3.66,24.51,36.63,2.17
3,31744,0,0.0,,,,,,,,
4,31745,0,0.0,,,,,,,,
5,31747,0,0.0,,,,,,,,
6,31749,0,0.0,,,,,,,,
0,31752,4,105.96,-563.11,806.76,19.53,14.04,18.92,0.22,24.02,-13.44
1,31764,4,-14.65,-994.02,159.79,87.89,15.26,1.22,34.99,40.63,-4.27
2,31775,5,-145.02,-999.88,8.67,25.63,4.27,3.05,24.5,36.35,2.84
3,31788,0,0.0,,,,,,,,
4,31789,0,0.0,,,,,,,,
5,31795,0,0.0,,,,,,,,
6,31796,1,0.0,,,,,,,,
0,31800,4,107.3,-564.45,809.57,20.14,15.87,20.75,0.38,24.35,-12.65
1,31812,4,-14.16,-995.85,158.69,89.11,14.65,0.0,35.13,40.56,-4.58
