id,t,dt,ax,ay,az,gx,gy,gz,mx,my,mz
-1,119,119,119.0,119.0,119.0,119.0,20.0,20.0,20.0,-6:45:21,04 12 2021
0,7330,4,215.82,-581.05,770.39,32.96,16.48,13.43,3.0,26.72,-13.79
1,7342,5,-97.41,-991.58,147.46,90.94,15.87,3.05,30.85,40.86,-4.70
2,7354,4,-176.51,-992.07,13.31,35.4,17.7,1.83,21.75,38.21,3.87
3,7365,0,0.0,,,,,,,,
4,7367,0,0.0,,,,,,,,
5,7369,0,0.0,,,,,,,,
6,7370,0,0.0,,,,,,,,
0,7374,4,226.07,-577.27,766.85,27.47,14.65,12.21,2.64,26.10,-12.95
1,7386,5,-98.51,-995.0,148.19,87.89,15.87,6.71,31.53,40.27,-5.74
2,7402,4,-184.57,-998.05,10.62,24.41,4.27,7.93,21.72,38.07,3.45
3,7413,0,0.0,,,,,,,,
4,7415,0,0.0,,,,,,,,
5,7416,0,0.0,,,,,,,,
6,7418,0,0.0,,,,,,,,
0,7421,6,219.24,-583.13,768.31,26.86,9.77,6.71,3.05,26.61,-12.79
1,7434,4,-94.97,-990.48,149.17,91.55,18.31,5.49,31.14,40.70,-3.89
2,7445,5,-180.05,-998.9,3.17,27.47,18.31,15.26,21.9,37.52,3.33
3,7457,0,0.0,,,,,,,,
4,7458,0,0.0,,,,,,,,
5,7460,0,0.0,,,,,,,,
6,7461,1,0.0,,,,,,,,
0,7465,5,223.14,-578.98,767.82,26.86,12.82,7.93,2.44,26.21,-13.70
1,7481,5,-96.19,-996.09,149.17,87.28,17.7,7.93,31.9,40.32,-4.93
2,7493,5,-177.98,-1000.49,6.1,21.36,9.77,22.58,21.72,37.60,2.88
3,7504,1,0.0,,,,,,,,
4,7506,0,0.0,,,,,,,,
5,7508,0,0.0,,,,,,,,
6,7510,0,0.0,,,,,,,,
0,7514,4,223.27,-577.39,769.9,36.62,7.93,1.22,2.83,26.12,-13.76
1,7525,5,-95.09,-996.22,148.68,76.29,22.58,12.21,31.57,40.45,-4.77
2,7537,4,-170.41,-998.41,15.26,17.7,3.66,25.02,22.39,37.60,2.54
3,7548,0,0.0,,,,,,,,
4,7555,0,0.0,,,,,,,,
5,7556,0,0.0,,,,,,,,
6,7558,0,0.0,,,,,,,,
0,7561,5,215.09,-584.11,766.97,37.84,11.6,4.27,3.39,26.57,-13.73
1,7573,4,-92.77,-991.21,150.15,82.4,19.53,8.54,32.06,41.06,-3.89
2,7584,5,-160.89,-992.43,16.6,25.02,13.43,23.19,22.12,38.23,2.64
3,7597,0,0.0,,,,,,,,
4,7598,0,0.0,,,,,,,,
5,7600,0,0.0,,,,,,,,
6,7602,0,0.0,,,,,,,,
0,7605,4,211.18,-592.53,762.45,32.35,15.26,9.77,2.8,26.15,-14.28
1,7617,4,-91.55,-979.13,154.3,85.45,14.04,3.66,31.73,40.20,-4.36
2,7632,4,-172.24,-988.53,14.4,24.41,9.16,19.53,22.55,37.92,3.93
3,7644,0,0.0,,,,,,,,
4,7646,0,0.0,,,,,,,,
5,7648,0,0.0,,,,,,,,
6,7649,0,0.0,,,,,,,,
0,7653,4,220.09,-582.89,764.77,15.26,6.71,7.32,2.93,27.01,-13.59
1,7664,5,-94.73,-996.58,150.76,90.33,15.26,13.43,31.81,40.10,-4.52
2,7676,5,-160.4,-1000.24,18.8,23.8,14.04,21.36,22.35,37.55,3.49
3,7688,0,0.0,,,,,,,,
4,7690,0,0.0,,,,,,,,
5,7691,1,0.0,,,,,,,,
6,7693,0,0.0,,,,,,,,
0,7696,5,210.33,-586.79,767.09,17.7,7.93,3.66,2.93,26.39,-13.81
1,7712,4,-90.45,-995.36,150.27,92.77,13.43,4.88,31.62,40.53,-5.27
2,7724,5,-156.74,-998.17,14.04,26.25,9.16,18.31,23.03,37.74,3.27
3,7736,0,0.0,,,,,,,,
4,7737,0,0.0,,,,,,,,
5,7739,0,0.0,,,,,,,,
6,7741,0,0.0,,,,,,,,
0,7744,4,213.62,-585.94,768.8,20.75,10.99,8.54,3.56,26.87,-13.15
1,7756,3,-91.8,-994.02,150.39,87.28,12.82,2.44,31.62,40.53,-5.27
2,7767,5,-170.65,-1000.49,15.63,23.8,-3.66,22.58,22.64,37.60,3.96
3,7782,0,0.0,,,,,,,,
4,7784,0,0.0,,,,,,,,
5,7786,0,0.0,,,,,,,,
6,7787,0,0.0,,,,,,,,
0,7791,4,211.43,-587.04,767.33,22.58,11.6,11.6,3.23,26.66,-13.24
1,7802,6,-88.26,-989.5,150.88,87.28,15.26,4.88,31.84,40.81,-4.70
2,7815,4,-153.81,-992.07,15.63,26.25,3.66,22.58,22.73,37.57,4.03
3,7826,0,0.0,,,,,,,,
4,7828,0,0.0,,,,,,,,
5,7829,0,0.0,,,,,,,,
6,7831,0,0.0,,,,,,,,
0,7834,4,214.11,-582.64,764.65,18.31,10.38,12.21,3.23,26.66,-13.24
1,7845,4,-88.99,-993.04,151.73,86.06,14.04,4.88,31.49,40.73,-5.25
2,7861,4,-155.88,-997.68,19.53,26.25,1.83,20.14,22.73,37.57,4.03
3,7872,0,0.0,,,,,,,,
4,7873,0,0.0,,,,,,,,
5,7875,0,0.0,,,,,,,,
6,7877,0,0.0,,,,,,,,
0,7880,4,209.59,-588.38,768.43,20.75,11.6,10.99,2.56,26.82,-13.99
1,7892,5,-88.75,-990.72,151.0,90.33,14.04,5.49,31.96,40.47,-4.97
2,7904,5,-154.91,-996.58,9.64,28.08,5.49,15.87,22.3,37.82,3.38
3,7915,1,0.0,,,,,,,,
4,7917,0,0.0,,,,,,,,
5,7919,0,0.0,,,,,,,,
6,7920,0,0.0,,,,,,,,
0,7924,4,208.62,-586.3,766.85,15.26,7.93,10.38,2.56,25.92,-13.45
1,7940,4,-88.26,-989.26,152.1,91.55,13.43,7.32,32.08,40.23,-5.35
2,7952,4,-158.33,-997.07,12.7,28.08,3.05,14.65,23.01,37.39,3.60
3,7963,0,0.0,,,,,,,,
4,7965,0,0.0,,,,,,,,
5,7966,0,0.0,,,,,,,,
6,7968,0,0.0,,,,,,,,
0,7971,5,208.62,-584.96,770.26,13.43,7.93,10.38,2.76,26.40,-13.98
1,7984,4,-85.45,-994.14,151.25,95.21,12.21,7.32,31.92,40.48,-4.38
2,7995,5,-143.43,-998.9,15.99,33.57,6.1,7.93,23.01,37.77,3.37
3,8012,0,0.0,,,,,,,,
4,8014,0,0.0,,,,,,,,
5,8015,0,0.0,,,,,,,,
6,8017,0,0.0,,,,,,,,
0,8020,6,202.15,-583.25,770.14,15.26,14.65,16.48,2.59,25.93,-13.23
1,8033,4,-89.11,-993.29,150.27,91.55,11.6,-1.83,32.63,40.64,-5.47
2,8045,4,-163.09,-1000.49,9.89,36.01,-12.82,0.0,23.11,37.76,2.86
3,8056,0,0.0,,,,,,,,
4,8058,0,0.0,,,,,,,,
5,8059,0,0.0,,,,,,,,
6,8061,0,0.0,,,,,,,,
0,8065,5,207.4,-583.01,768.92,19.53,15.26,15.26,2.77,26.60,-12.88
1,8077,4,-88.13,-993.77,151.0,91.55,12.82,1.83,32.12,40.48,-5.22
2,8092,5,-153.56,-1000.49,9.4,33.57,3.66,6.1,23.55,37.48,4.06
3,8103,1,0.0,,,,,,,,
4,8105,0,0.0,,,,,,,,
5,8108,0,0.0,,,,,,,,
6,8109,0,0.0,,,,,,,,
0,8113,4,208.37,-583.98,769.04,20.14,14.65,16.48,1.88,26.68,-13.11
1,8124,5,-85.69,-991.82,150.39,89.72,13.43,2.44,32.1,40.00,-4.60
2,8136,4,-151.98,-995.12,11.35,30.52,9.16,10.38,23.46,37.23,3.03
3,8147,0,0.0,,,,,,,,
4,8150,0,0.0,,,,,,,,
5,8152,0,0.0,,,,,,,,
6,8153,0,0.0,,,,,,,,
0,8160,5,206.79,-583.62,768.68,16.48,14.04,16.48,2.37,26.46,-13.28
1,8172,4,-83.98,-994.02,151.37,89.11,12.21,1.83,30.98,40.41,-5.57
2,8184,4,-143.07,-1000.49,11.23,30.52,14.04,4.88,22.83,37.33,3.41
3,8196,0,0.0,,,,,,,,
4,8198,0,0.0,,,,,,,,
5,8199,0,0.0,,,,,,,,
6,8201,0,0.0,,,,,,,,
0,8204,5,207.64,-584.35,769.53,19.53,16.48,20.14,1.86,26.92,-13.24
1,8216,3,-87.16,-993.04,149.66,90.33,12.21,-4.27,30.98,40.41,-5.57
2,8227,4,-150.27,-997.68,8.79,29.3,-0.61,1.83,22.72,36.61,4.10
3,8243,0,0.0,,,,,,,,
4,8244,0,0.0,,,,,,,,
5,8246,0,0.0,,,,,,,,
6,8247,0,0.0,,,,,,,,
0,8251,4,210.21,-584.23,769.17,18.92,17.09,18.31,2.01,26.43,-12.79
1,8262,5,-86.43,-992.8,151.73,89.72,12.82,0.0,31.23,40.26,-5.47
2,8274,5,-151.12,-999.63,10.25,28.69,-0.61,-1.83,22.73,37.05,4.20
3,8286,0,0.0,,,,,,,,
4,8288,0,0.0,,,,,,,,
5,8290,0,0.0,,,,,,,,
6,8291,0,0.0,,,,,,,,
0,8295,4,205.69,-582.4,770.87,20.14,15.87,20.75,2.12,26.77,-14.01
1,8310,4,-86.18,-994.02,150.39,90.94,14.04,-3.66,31.42,40.69,-4.85
2,8323,4,-148.32,-999.76,9.4,30.52,10.99,0.61,22.97,37.46,3.39
3,8334,0,0.0,,,,,,,,
4,8336,0,0.0,,,,,,,,
5,8337,0,0.0,,,,,,,,
6,8339,0,0.0,,,,,,,,
0,8342,5,208.13,-584.23,767.82,18.92,19.53,23.8,2.5,26.44,-13.64
1,8354,4,-86.06,-989.5,151.12,94.6,12.21,-5.49,31.53,40.88,-4.99
2,8367,3,-149.41,-993.9,9.4,29.91,5.49,-2.44,22.97,37.46,3.39
3,8377,0,0.0,,,,,,,,
4,8378,0,0.0,,,,,,,,
5,8380,0,0.0,,,,,,,,
6,8385,0,0.0,,,,,,,,
0,8389,4,209.72,-583.74,767.46,14.04,15.26,21.97,2.42,25.98,-13.67
1,8400,6,-87.65,-991.82,150.39,93.99,10.99,0.0,31.49,40.20,-4.17
2,8413,4,-147.58,-997.8,9.64,31.13,2.44,-6.71,22.81,37.12,4.90
3,8424,0,0.0,,,,,,,,
4,8426,0,0.0,,,,,,,,
5,8427,1,0.0,,,,,,,,
6,8429,0,0.0,,,,,,,,
0,8432,5,208.86,-582.03,770.02,9.77,14.65,22.58,2.44,26.45,-13.77
1,8444,5,-87.04,-998.66,147.46,97.66,10.99,-3.05,31.67,40.04,-5.15
2,8457,4,-149.17,-1000.61,5.49,26.86,-1.83,-5.49,22.95,37.12,3.37
3,8472,0,0.0,,,,,,,,
4,8473,1,0.0,,,,,,,,
5,8475,0,0.0,,,,,,,,
6,8477,0,0.0,,,,,,,,
0,8480,4,208.5,-583.01,770.63,14.04,15.87,23.8,2.83,26.76,-13.68
1,8493,4,-88.13,-990.23,151.25,92.77,9.77,-7.32,31.2,40.75,-4.80
2,8504,5,-156.13,-1000.37,4.15,26.86,1.22,-7.93,23.13,37.66,3.42
3,8516,0,0.0,,,,,,,,
4,8517,0,0.0,,,,,,,,
5,8519,0,0.0,,,,,,,,
6,8521,0,0.0,,,,,,,,
0,8524,3,210.82,-578.86,772.34,15.26,16.48,23.8,2.83,26.76,-13.68
1,8539,5,-86.55,-995.0,148.32,90.33,12.21,-4.27,31.8,40.65,-4.44
2,8551,4,-149.78,-1000.49,4.39,22.58,-4.88,-7.32,23.44,37.07,3.78
3,8562,0,0.0,,,,,,,,
4,8564,0,0.0,,,,,,,,
5,8565,1,0.0,,,,,,,,
6,8567,0,0.0,,,,,,,,
0,8570,6,212.28,-574.83,771.97,17.09,17.09,23.8,2.93,26.66,-14.11
1,8583,4,-90.33,-996.83,147.83,91.55,11.6,-7.32,31.25,40.64,-5.10
2,8595,4,-152.83,-998.66,6.71,16.48,-4.27,-9.16,23.07,37.59,3.45
3,8606,0,0.0,,,,,,,,
4,8608,0,0.0,,,,,,,,
5,8613,0,0.0,,,,,,,,
6,8615,0,0.0,,,,,,,,
0,8619,4,208.74,-580.44,771.24,23.19,18.31,22.58,2.49,26.37,-13.27
1,8631,4,-87.52,-992.31,149.9,89.11,13.43,-7.93,31.81,40.63,-4.70
2,8642,5,-150.02,-997.8,10.38,23.8,-3.05,-15.26,23.0,37.16,2.89
3,8654,0,0.0,,,,,,,,
4,8655,0,0.0,,,,,,,,
5,8657,0,0.0,,,,,,,,
6,8659,0,0.0,,,,,,,,
0,8663,4,212.28,-578.37,773.44,21.36,21.36,26.25,2.55,26.43,-13.83
1,8675,4,-90.7,-991.94,150.15,86.06,9.77,-10.38,31.7,40.31,-4.81
2,8690,4,-153.44,-997.44,9.28,23.8,-12.21,-15.87,22.78,36.89,3.48
3,8701,0,0.0,,,,,,,,
4,8704,0,0.0,,,,,,,,
5,8706,0,0.0,,,,,,,,
6,8707,0,0.0,,,,,,,,
0,8711,4,211.3,-578.49,771.97,18.92,24.41,29.91,2.39,26.53,-13.87
1,8722,4,-90.94,-995.85,149.54,90.33,9.16,-15.87,31.7,40.31,-4.81
2,8733,4,-158.08,-999.27,10.5,21.97,-14.65,-18.92,23.0,37.12,4.93
3,8744,0,0.0,,,,,,,,
4,8747,0,0.0,,,,,,,,
5,8749,0,0.0,,,,,,,,
6,8750,0,0.0,,,,,,,,
0,8754,4,216.06,-577.39,770.51,23.19,23.19,28.69,2.83,26.64,-13.54
1,8769,4,-94.73,-991.82,150.02,87.89,11.6,-7.32,31.53,40.53,-5.54
2,8781,4,-166.87,-996.46,7.57,25.02,-4.27,-10.38,23.34,37.10,3.23
3,8793,0,0.0,,,,,,,,
4,8795,0,0.0,,,,,,,,
5,8796,0,0.0,,,,,,,,
6,8798,0,0.0,,,,,,,,
0,8801,5,214.72,-578.61,770.51,23.19,15.87,21.97,3.23,26.48,-14.38
1,8813,4,-90.94,-993.9,150.15,89.72,10.38,-3.05,31.58,40.12,-4.31
2,8825,3,-153.2,-997.56,9.03,25.63,2.44,-7.93,23.34,37.10,3.23
3,8840,0,0.0,,,,,,,,
4,8841,0,0.0,,,,,,,,
5,8843,0,0.0,,,,,,,,
6,8844,1,0.0,,,,,,,,
0,8848,4,211.79,-578.74,771.0,22.58,18.31,24.41,3.44,26.25,-13.82
1,8859,5,-89.36,-993.77,149.54,93.99,9.16,-10.38,31.63,39.77,-5.77
2,8871,6,-157.1,-999.76,11.84,30.52,3.66,-15.26,22.9,37.38,3.45
3,8883,1,0.0,,,,,,,,
4,8885,0,0.0,,,,,,,,
5,8887,0,0.0,,,,,,,,
6,8888,0,0.0,,,,,,,,
0,8892,4,215.33,-579.71,770.51,26.25,25.63,28.08,3.05,26.11,-12.73
1,8903,5,-95.83,-992.92,148.8,89.72,9.77,-11.6,31.59,40.78,-5.66
2,8920,4,-168.7,-994.02,7.69,28.69,-3.05,-11.6,23.36,37.79,3.20
3,8931,0,0.0,,,,,,,,
4,8933,0,0.0,,,,,,,,
5,8934,0,0.0,,,,,,,,
6,8936,0,0.0,,,,,,,,
0,8939,5,219.24,-578.0,770.14,23.8,18.92,25.63,3.52,26.90,-13.77
1,8951,4,-98.14,-992.8,150.76,91.55,11.6,-3.66,31.53,40.54,-5.20
2,8964,4,-164.31,-996.95,8.42,29.91,6.1,-7.32,22.86,36.79,3.42
3,8975,0,0.0,,,,,,,,
4,8977,0,0.0,,,,,,,,
5,8978,0,0.0,,,,,,,,
6,8980,0,0.0,,,,,,,,
0,8987,4,212.4,-580.57,771.0,23.19,16.48,22.58,3.39,26.21,-12.88
1,8999,5,-90.94,-994.02,149.05,90.94,9.77,-1.83,31.98,40.36,-5.05
2,9011,5,-160.28,-1000.0,5.0,26.86,6.71,-9.77,23.44,37.05,2.95
3,9022,1,0.0,,,,,,,,
4,9024,0,0.0,,,,,,,,
5,9026,0,0.0,,,,,,,,
6,9027,0,0.0,,,,,,,,
0,9031,4,218.02,-577.03,770.26,24.41,19.53,21.36,3.03,26.25,-13.62
1,9042,6,-96.44,-992.07,150.51,89.72,13.43,-4.27,32.28,40.21,-4.35
2,9055,4,-166.87,-995.85,9.64,28.69,1.22,-7.93,23.1,37.19,4.39
3,9070,0,0.0,,,,,,,,
4,9072,0,0.0,,,,,,,,
5,9073,0,0.0,,,,,,,,
6,9075,0,0.0,,,,,,,,
0,9078,5,217.65,-579.59,770.02,23.19,17.7,23.8,3.36,26.97,-13.95
1,9091,4,-95.46,-993.9,148.32,93.38,10.99,-5.49,31.77,40.66,-4.58
2,9103,4,-167.36,-996.58,8.91,29.91,-3.05,-10.38,22.92,37.38,3.89
3,9114,0,0.0,,,,,,,,
4,9116,0,0.0,,,,,,,,
5,9117,0,0.0,,,,,,,,
6,9119,0,0.0,,,,,,,,
0,9122,5,220.58,-577.27,770.02,25.02,18.31,23.19,3.34,26.18,-13.72
1,9135,4,-98.88,-992.43,149.17,92.16,14.04,-3.66,32.73,40.83,-4.57
2,9150,5,-169.43,-996.95,6.1,30.52,13.43,0.0,23.17,37.35,3.76
3,9161,1,0.0,,,,,,,,
4,9163,0,0.0,,,,,,,,
5,9165,0,0.0,,,,,,,,
6,9166,0,0.0,,,,,,,,
0,9170,5,218.38,-579.35,768.8,21.36,14.65,17.7,3.33,26.15,-13.45
1,9182,5,-93.99,-990.72,150.63,89.72,14.65,1.83,32.41,40.50,-5.20
2,9194,4,-158.57,-997.07,2.69,28.08,10.38,-0.61,22.6,37.22,4.04
3,9205,0,0.0,,,,,,,,
4,9207,0,0.0,,,,,,,,
5,9208,1,0.0,,,,,,,,
6,9214,0,0.0,,,,,,,,
0,9218,4,215.82,-578.0,769.17,21.97,14.65,19.53,3.48,26.31,-13.57
1,9230,3,-95.09,-993.29,148.8,90.33,14.04,-3.05,32.41,40.50,-5.20
2,9240,5,-168.21,-1000.37,2.81,26.86,-0.61,-0.61,22.8,37.45,3.20
3,9252,0,0.0,,,,,,,,
4,9253,0,0.0,,,,,,,,
5,9255,0,0.0,,,,,,,,
6,9257,0,0.0,,,,,,,,
0,9261,3,218.87,-578.61,770.14,22.58,14.65,18.92,3.48,26.31,-13.57
1,9272,4,-96.31,-992.31,150.39,90.33,13.43,-1.22,31.76,40.70,-5.73
2,9283,5,-165.28,-996.34,5.86,26.25,-2.44,1.22,22.89,37.39,4.46
3,9298,0,0.0,,,,,,,,
4,9300,0,0.0,,,,,,,,
5,9303,0,0.0,,,,,,,,
6,9304,0,0.0,,,,,,,,
0,9308,4,215.58,-577.27,770.51,20.75,15.26,21.36,3.21,26.40,-14.05
1,9319,5,-94.85,-994.51,148.68,90.33,12.21,-3.05,32.18,40.27,-4.61
2,9331,3,-162.48,-1000.37,3.17,25.02,1.22,1.83,22.89,37.39,4.46
3,9341,0,0.0,,,,,,,,
4,9344,0,0.0,,,,,,,,
5,9345,0,0.0,,,,,,,,
6,9347,0,0.0,,,,,,,,
0,9350,5,218.87,-579.22,769.04,22.58,15.87,19.53,2.99,26.10,-13.76
1,9366,4,-97.17,-992.43,148.8,90.33,12.21,-1.22,32.12,40.55,-4.87
2,9377,5,-164.31,-998.05,5.25,25.63,4.88,3.66,22.85,37.39,3.76
3,9390,0,0.0,,,,,,,,
4,9391,0,0.0,,,,,,,,
5,9393,0,0.0,,,,,,,,
6,9394,1,0.0,,,,,,,,
0,9398,4,217.53,-577.88,771.0,25.02,14.65,20.14,3.25,26.71,-13.82
1,9410,4,-94.97,-993.16,149.66,88.5,13.43,-1.83,31.7,40.38,-4.57
2,9421,5,-162.96,-997.56,3.66,24.41,0.0,6.1,22.79,37.62,4.30
3,9433,0,0.0,,,,,,,,
4,9435,0,0.0,,,,,,,,
5,9440,0,0.0,,,,,,,,
6,9442,0,0.0,,,,,,,,
0,9445,5,218.14,-580.2,768.19,23.19,12.82,18.31,2.82,26.29,-12.93
1,9457,4,-94.97,-993.04,149.17,86.67,14.65,0.61,31.77,40.12,-4.97
2,9469,5,-162.48,-996.7,7.57,22.58,3.05,5.49,22.57,37.24,5.00
3,9481,0,0.0,,,,,,,,
4,9482,1,0.0,,,,,,,,
5,9484,0,0.0,,,,,,,,
6,9486,0,0.0,,,,,,,,
0,9489,4,216.92,-579.35,769.78,20.75,12.82,16.48,3.2,26.48,-13.42
1,9501,4,-93.63,-993.65,149.54,89.11,13.43,-1.22,32.47,40.20,-4.35
2,9512,6,-155.76,-994.38,6.96,22.58,2.44,3.66,22.35,37.54,4.48
3,9528,1,0.0,,,,,,,,
4,9530,0,0.0,,,,,,,,
5,9532,0,0.0,,,,,,,,
6,9533,0,0.0,,,,,,,,
0,9537,4,217.41,-580.08,770.02,20.14,16.48,19.53,3.05,26.35,-13.62
1,9548,5,-95.95,-993.29,149.54,89.11,12.82,-1.83,32.2,40.34,-5.16
2,9561,4,-162.84,-997.68,4.88,24.41,-2.44,2.44,22.74,37.28,3.85
3,9572,0,0.0,,,,,,,,
4,9574,0,0.0,,,,,,,,
5,9575,1,0.0,,,,,,,,
6,9577,0,0.0,,,,,,,,
0,9580,5,216.8,-579.35,769.17,17.7,12.82,17.7,2.95,26.44,-14.49
1,9596,5,-95.34,-993.77,149.05,92.16,11.6,-1.22,31.88,40.41,-4.11
2,9609,4,-161.01,-1000.49,3.91,22.58,0.61,6.1,22.41,37.50,3.50
3,9620,0,0.0,,,,,,,,
4,9621,1,0.0,,,,,,,,
5,9623,0,0.0,,,,,,,,
6,9625,0,0.0,,,,,,,,
0,9628,4,217.9,-580.2,770.51,19.53,12.82,18.31,3.04,26.34,-14.20
1,9640,5,-93.75,-993.04,150.39,87.89,13.43,0.61,31.91,40.59,-4.60
2,9652,5,-158.57,-996.22,7.93,24.41,-0.61,5.49,22.78,37.40,3.02
3,9664,0,0.0,,,,,,,,
4,9665,0,0.0,,,,,,,,
5,9671,0,0.0,,,,,,,,
6,9672,0,0.0,,,,,,,,
0,9676,4,218.02,-579.22,769.9,17.7,14.04,16.48,2.95,26.57,-13.56
1,9688,4,-93.99,-993.16,149.41,92.16,12.21,-2.44,31.91,40.59,-4.60
2,9699,4,-158.33,-997.68,5.74,22.58,-4.88,2.44,22.45,37.30,3.91
3,9710,0,0.0,,,,,,,,
4,9712,0,0.0,,,,,,,,
5,9713,0,0.0,,,,,,,,
6,9715,0,0.0,,,,,,,,
0,9718,5,216.43,-578.98,770.14,18.92,14.65,18.92,3.0,26.27,-13.57
1,9731,4,-93.87,-993.04,151.0,91.55,13.43,-1.22,32.21,40.44,-5.07
2,9746,5,-160.28,-997.56,8.06,25.63,0.61,3.66,22.9,37.67,3.82
3,9758,0,0.0,,,,,,,,
4,9759,0,0.0,,,,,,,,
5,9761,0,0.0,,,,,,,,
6,9762,0,0.0,,,,,,,,
0,9766,5,213.5,-578.98,771.85,21.36,14.04,17.7,3.42,26.26,-13.46
1,9778,5,-93.14,-993.77,149.78,90.33,11.6,-2.44,32.26,40.65,-4.74
2,9790,4,-156.62,-999.15,4.52,26.86,-1.83,0.0,22.11,37.50,4.04
3,9801,0,0.0,,,,,,,,
4,9803,0,0.0,,,,,,,,
5,9805,0,0.0,,,,,,,,
6,9806,0,0.0,,,,,,,,
0,9809,6,218.99,-577.27,770.75,24.41,17.09,18.92,2.76,26.11,-13.76
1,9826,4,-95.95,-993.29,149.29,87.89,12.82,0.61,31.68,40.34,-4.19
2,9838,3,-164.18,-996.34,7.81,25.02,3.66,1.83,22.11,37.50,4.04
3,9848,0,0.0,,,,,,,,
4,9849,0,0.0,,,,,,,,
5,9851,0,0.0,,,,,,,,
6,9853,0,0.0,,,,,,,,
0,9857,3,218.02,-578.98,770.63,21.36,14.04,16.48,2.76,26.11,-13.76
1,9868,4,-95.58,-993.04,149.41,90.33,12.82,3.05,32.08,40.42,-4.54
2,9879,5,-164.18,-993.9,9.03,28.69,4.27,7.93,22.22,37.72,4.09
3,9890,0,0.0,,,,,,,,
4,9896,0,0.0,,,,,,,,
5,9897,0,0.0,,,,,,,,
6,9900,0,0.0,,,,,,,,
0,9903,5,221.68,-578.86,770.02,18.92,12.21,11.6,2.92,26.75,-13.81
1,9915,4,-96.56,-990.72,149.9,91.55,14.65,3.05,32.12,40.76,-4.50
2,9927,4,-152.34,-998.66,7.2,26.86,-4.27,6.1,22.22,37.60,3.74
3,9938,0,0.0,,,,,,,,
4,9940,0,0.0,,,,,,,,
5,9942,0,0.0,,,,,,,,
6,9944,0,0.0,,,,,,,,
0,9947,5,214.72,-578.74,771.36,19.53,11.6,11.6,3.64,26.46,-13.67
1,9959,4,-93.63,-991.58,149.78,90.94,14.04,3.05,32.12,41.06,-4.71
2,9974,5,-156.13,-997.56,6.84,26.25,2.44,3.66,22.39,37.74,4.33
3,9986,1,0.0,,,,,,,,
4,9988,0,0.0,,,,,,,,
5,9990,0,0.0,,,,,,,,
6,9991,0,0.0,,,,,,,,
0,9995,4,218.38,-578.74,771.85,17.09,10.99,13.43,3.96,26.51,-13.17
1,10006,5,-93.14,-993.65,149.54,92.77,14.04,1.83,32.04,40.38,-4.49
2,10018,4,-158.94,-998.29,3.3,28.69,-6.71,3.05,22.2,37.19,4.21
3,10030,0,0.0,,,,,,,,
4,10032,0,0.0,,,,,,,,
5,10034,0,0.0,,,,,,,,
6,10035,0,0.0,,,,,,,,
0,10039,4,181.76,-581.18,766.11,17.7,9.77,15.26,3.83,26.43,-13.56
1,10054,5,-94.73,-971.07,163.7,83.62,15.26,9.16,32.43,40.66,-4.70
2,10066,5,-158.57,-988.16,3.91,23.8,-25.63,1.83,22.64,37.27,4.47
3,10078,0,0.0,,,,,,,,
4,10080,0,0.0,,,,,,,,
5,10081,1,0.0,,,,,,,,
6,10083,0,0.0,,,,,,,,
0,10087,4,211.55,-575.32,775.27,10.99,-4.88,-0.61,3.38,26.10,-12.81
1,10098,5,-84.72,-990.36,151.98,84.84,15.87,14.65,32.21,40.61,-4.49
2,10110,5,-149.66,-1001.34,1.83,22.58,-33.57,-1.83,23.28,36.80,4.44
3,10126,0,0.0,,,,,,,,
4,10128,0,0.0,,,,,,,,
5,10129,1,0.0,,,,,,,,
6,10131,0,0.0,,,,,,,,
0,10134,5,203.86,-578.74,775.15,20.14,7.93,10.99,2.94,26.10,-13.21
1,10146,5,-92.65,-994.38,150.15,87.89,13.43,0.61,32.56,40.80,-4.65
2,10159,4,-157.35,-997.44,3.17,25.02,-9.16,0.0,23.51,37.70,3.32
3,10170,0,0.0,,,,,,,,
4,10172,0,0.0,,,,,,,,
5,10173,1,0.0,,,,,,,,
6,10175,0,0.0,,,,,,,,
0,10178,5,214.48,-578.61,769.65,17.09,1.83,3.05,3.47,26.50,-13.70
1,10190,3,-91.92,-989.01,150.51,88.5,15.87,9.16,32.56,40.80,-4.65
2,10206,4,-155.03,-999.88,9.4,24.41,-26.25,3.66,23.3,36.99,3.81
3,10217,0,0.0,,,,,,,,
4,10219,0,0.0,,,,,,,,
5,10220,0,0.0,,,,,,,,
6,10222,0,0.0,,,,,,,,
0,10225,5,203.13,-577.88,777.47,14.65,4.88,6.71,3.23,26.38,-13.81
1,10237,5,-89.23,-994.02,150.51,93.38,15.87,2.44,32.4,40.55,-3.92
2,10250,4,-156.37,-998.05,5.62,34.79,-16.48,5.49,23.24,37.49,2.89
3,10261,0,0.0,,,,,,,,
4,10263,0,0.0,,,,,,,,
5,10264,0,0.0,,,,,,,,
6,10270,0,0.0,,,,,,,,
0,10273,4,207.03,-578.25,773.93,19.53,12.21,16.48,3.05,26.01,-12.49
1,10286,4,-92.16,-991.33,148.32,93.38,12.82,4.27,32.39,40.48,-5.25
2,10297,5,-160.64,-996.83,4.15,40.28,3.05,3.66,23.4,37.28,3.97
3,10309,0,0.0,,,,,,,,
4,10310,0,0.0,,,,,,,,
5,10312,0,0.0,,,,,,,,
6,10314,0,0.0,,,,,,,,
0,10317,4,205.32,-577.64,774.9,17.09,14.65,17.7,2.73,25.77,-13.43
1,10330,4,-85.21,-993.16,148.8,93.99,12.21,1.22,32.82,39.81,-4.99
2,10341,4,-146.85,-1000.61,0.24,40.28,12.21,-0.61,23.4,37.28,3.97
3,10355,1,0.0,,,,,,,,
4,10357,0,0.0,,,,,,,,
5,10359,0,0.0,,,,,,,,
6,10360,0,0.0,,,,,,,,
0,10364,5,205.93,-577.03,775.02,18.31,21.36,26.86,2.95,25.81,-13.16
1,10376,5,-89.23,-993.16,149.17,93.38,10.38,-7.32,31.76,40.26,-3.71
2,10388,5,-158.69,-996.34,-0.37,35.4,12.21,-3.05,23.66,37.29,4.81
3,10400,0,0.0,,,,,,,,
4,10401,0,0.0,,,,,,,,
5,10403,0,0.0,,,,,,,,
6,10405,0,0.0,,,,,,,,
0,10408,5,209.84,-577.15,772.83,17.09,17.7,26.86,2.7,25.88,-13.07
1,10424,5,-89.84,-992.55,148.32,91.55,10.38,-2.44,32.1,40.48,-5.58
2,10436,4,-159.79,-1000.61,-6.47,31.13,3.66,-0.61,23.72,37.56,4.46
3,10447,1,0.0,,,,,,,,
4,10449,0,0.0,,,,,,,,
5,10451,0,0.0,,,,,,,,
6,10452,0,0.0,,,,,,,,
0,10457,4,208.74,-573.12,775.76,19.53,14.04,19.53,2.82,25.95,-13.70
1,10468,5,-87.65,-993.29,147.95,91.55,12.21,-3.66,32.15,40.45,-5.03
2,10480,5,-155.27,-998.17,0.49,31.74,15.26,6.1,23.63,37.04,3.60
3,10496,0,0.0,,,,,,,,
4,10498,0,0.0,,,,,,,,
5,10500,0,0.0,,,,,,,,
6,10501,0,0.0,,,,,,,,
0,10505,4,208.62,-575.68,773.56,20.75,18.92,25.02,2.0,25.73,-13.76
1,10516,5,-90.58,-992.68,147.09,93.99,12.21,-1.83,32.47,40.66,-5.43
2,10528,4,-152.59,-996.34,-0.85,32.96,11.6,2.44,23.13,37.34,4.04
3,10540,0,0.0,,,,,,,,
4,10542,0,0.0,,,,,,,,
5,10544,0,0.0,,,,,,,,
6,10545,0,0.0,,,,,,,,
0,10549,4,209.47,-574.58,775.63,15.87,15.26,18.92,2.43,25.93,-13.18
1,10560,5,-88.5,-996.7,146.61,92.77,11.6,-0.61,32.08,40.36,-4.93
2,10576,4,-153.56,-1000.49,-3.42,34.18,9.77,2.44,23.21,37.11,3.70
3,10588,0,0.0,,,,,,,,
4,10590,0,0.0,,,,,,,,
5,10591,1,0.0,,,,,,,,
6,10593,0,0.0,,,,,,,,
0,10597,4,210.69,-575.68,774.54,21.97,19.53,22.58,2.48,25.74,-13.66
1,10608,5,-91.43,-993.04,148.19,92.16,13.43,-3.66,32.41,40.91,-5.58
2,10620,5,-157.35,-997.07,-1.46,34.18,6.71,3.05,23.13,37.39,5.16
3,10632,0,0.0,,,,,,,,
4,10634,0,0.0,,,,,,,,
5,10636,0,0.0,,,,,,,,
6,10637,0,0.0,,,,,,,,
0,10644,4,208.62,-574.95,774.78,17.7,12.82,17.09,2.48,25.74,-13.66
1,10655,4,-90.21,-993.04,146.24,91.55,12.82,-0.61,32.14,40.75,-4.43
2,10668,4,-155.27,-998.66,-3.78,30.52,-6.71,2.44,23.52,37.07,4.44
3,10679,0,0.0,,,,,,,,
4,10681,0,0.0,,,,,,,,
5,10682,0,0.0,,,,,,,,
6,10684,0,0.0,,,,,,,,
0,10687,5,211.06,-574.1,774.9,15.87,10.99,16.48,2.19,25.89,-14.23
1,10699,4,-90.09,-993.53,146.97,93.99,14.04,1.22,32.14,40.75,-4.43
2,10711,4,-156.13,-997.8,-0.37,28.69,-8.54,3.66,23.56,37.39,4.20
3,10726,0,0.0,,,,,,,,
4,10728,0,0.0,,,,,,,,
5,10729,0,0.0,,,,,,,,
6,10731,0,0.0,,,,,,,,
0,10734,5,207.15,-572.75,777.34,15.87,11.6,17.7,2.71,25.90,-14.26
1,10746,4,-88.38,-994.02,147.22,92.77,13.43,1.83,31.99,41.25,-4.13
2,10759,4,-150.15,-998.9,-5.13,26.25,-4.27,2.44,22.94,36.91,4.87
3,10770,0,0.0,,,,,,,,
4,10772,0,0.0,,,,,,,,
5,10773,0,0.0,,,,,,,,
6,10775,0,0.0,,,,,,,,
0,10778,5,209.47,-573.12,775.39,15.26,10.99,18.31,2.72,25.99,-13.83
1,10795,4,-90.7,-994.63,146.61,90.33,12.82,-0.61,31.75,40.00,-5.18
2,10807,4,-157.23,-1000.49,-5.62,25.63,-12.21,1.83,22.97,37.07,4.74
3,10818,0,0.0,,,,,,,,
4,10820,0,0.0,,,,,,,,
5,10821,0,0.0,,,,,,,,
6,10823,0,0.0,,,,,,,,
0,10826,5,209.72,-570.43,778.08,17.7,13.43,18.31,3.25,26.06,-14.36
1,10839,4,-91.06,-996.83,144.29,92.16,14.04,-2.44,31.79,40.73,-4.14
2,10851,4,-154.05,-1000.12,-3.78,23.8,-1.22,4.27,22.74,37.51,4.65
3,10862,0,0.0,,,,,,,,
4,10868,0,0.0,,,,,,,,
5,10869,0,0.0,,,,,,,,
6,10871,0,0.0,,,,,,,,
0,10874,6,205.69,-572.39,775.63,19.53,14.65,18.31,2.48,26.10,-14.06
1,10887,4,-87.16,-993.16,145.51,89.11,12.82,1.22,32.01,40.36,-4.65
2,10899,3,-149.54,-998.41,-2.08,25.63,5.49,0.0,22.74,37.51,4.65
3,10909,0,0.0,,,,,,,,
4,10911,0,0.0,,,,,,,,
5,10912,0,0.0,,,,,,,,
6,10914,0,0.0,,,,,,,,
0,10917,6,205.93,-572.02,778.56,20.14,15.26,21.97,2.99,25.65,-13.49
1,10930,4,-89.6,-994.75,145.75,90.94,12.21,-3.05,31.95,40.50,-5.19
2,10945,5,-152.47,-998.54,-3.05,26.86,6.1,-2.44,23.13,37.54,3.80
3,10957,0,0.0,,,,,,,,
4,10958,0,0.0,,,,,,,,
5,10960,0,0.0,,,,,,,,
6,10962,0,0.0,,,,,,,,
0,10966,4,208.25,-573.97,777.22,21.36,17.7,23.19,3.02,25.50,-12.56
1,10978,4,-89.36,-992.68,146.12,92.16,11.6,-3.66,31.54,40.66,-5.08
2,10990,4,-154.05,-997.44,-5.37,28.08,10.38,-1.22,23.3,37.87,4.11
3,11001,0,0.0,,,,,,,,
4,11003,0,0.0,,,,,,,,
5,11004,0,0.0,,,,,,,,
6,11006,0,0.0,,,,,,,,
0,11014,4,206.79,-571.78,778.81,22.58,20.14,23.8,3.44,25.51,-13.82
1,11026,4,-89.48,-993.53,145.75,91.55,12.21,-4.27,32.1,40.54,-4.13
2,11037,5,-154.17,-999.15,-3.78,29.3,15.26,-2.44,23.23,38.02,4.66
3,11049,0,0.0,,,,,,,,
4,11051,1,0.0,,,,,,,,
5,11053,0,0.0,,,,,,,,
6,11055,0,0.0,,,,,,,,
0,11058,4,206.54,-572.02,778.44,21.36,18.92,22.58,3.39,26.04,-13.75
1,11070,4,-88.87,-992.8,146.0,87.28,12.21,-2.44,31.67,40.67,-4.99
2,11082,4,-149.54,-997.8,-5.0,28.69,21.36,-4.27,22.64,37.65,3.09
3,11103,0,0.0,,,,,,,,
4,11105,0,0.0,,,,,,,,
5,11106,0,0.0,,,,,,,,
6,11108,0,0.0,,,,,,,,
0,11111,5,209.84,-572.39,776.49,24.41,23.8,25.02,3.5,25.51,-12.89
1,11123,4,-89.6,-992.8,145.63,89.11,12.82,-5.49,31.59,40.38,-4.17
2,11136,4,-152.95,-1000.0,-3.42,31.13,22.58,-7.32,22.63,37.33,4.80
3,11147,0,0.0,,,,,,,,
4,11149,0,0.0,,,,,,,,
5,11150,1,0.0,,,,,,,,
6,11152,0,0.0,,,,,,,,
0,11155,5,208.74,-568.6,779.66,25.63,33.57,28.08,3.39,25.81,-13.27
1,11171,4,-89.23,-994.75,146.61,86.06,12.21,-10.38,31.96,39.88,-4.21
2,11184,4,-152.34,-1000.49,-4.88,29.91,31.13,-9.16,22.9,37.78,3.77
3,11195,0,0.0,,,,,,,,
4,11197,0,0.0,,,,,,,,
5,11198,1,0.0,,,,,,,,
6,11200,0,0.0,,,,,,,,
0,11203,5,207.4,-559.08,781.25,38.45,51.27,23.19,3.44,25.59,-13.77
1,11215,5,-86.67,-991.82,146.24,90.94,12.21,-13.43,32.54,40.44,-4.88
2,11228,4,-129.03,-998.29,-23.32,17.7,19.53,-32.35,22.94,37.72,4.44
3,11239,1,0.0,,,,,,,,
4,11245,0,0.0,,,,,,,,
5,11246,1,0.0,,,,,,,,
6,11248,0,0.0,,,,,,,,
0,11252,4,218.38,-592.77,762.21,112.3,130.62,24.41,4.79,24.74,-13.84
1,11264,5,-102.17,-999.15,143.31,90.94,18.92,-30.52,31.76,40.38,-4.46
2,11276,5,-168.21,-996.95,-3.78,20.14,12.21,-17.7,22.99,38.02,3.72
3,11288,0,0.0,,,,,,,,
4,11289,0,0.0,,,,,,,,
5,11291,0,0.0,,,,,,,,
6,11292,1,0.0,,,,,,,,
0,11296,4,232.54,-590.7,758.18,50.05,64.09,39.67,5.58,24.21,-13.38
1,11309,3,-98.27,-994.87,146.24,86.67,14.65,-16.48,31.76,40.38,-4.46
2,11323,5,-162.84,-993.65,-0.61,26.25,32.35,-8.54,22.14,37.70,4.53
3,11334,1,0.0,,,,,,,,
4,11336,0,0.0,,,,,,,,
5,11338,0,0.0,,,,,,,,
6,11339,1,0.0,,,,,,,,
0,11343,4,235.11,-585.57,755.74,24.41,26.86,33.57,5.33,24.61,-12.40
1,11356,4,-94.97,-991.94,145.14,89.72,14.04,-5.49,31.63,40.70,-4.13
2,11367,5,-151.73,-996.95,-0.49,24.41,11.6,-17.09,21.7,38.13,4.08
3,11379,0,0.0,,,,,,,,
4,11380,0,0.0,,,,,,,,
5,11382,0,0.0,,,,,,,,
6,11387,0,0.0,,,,,,,,
0,11392,4,230.47,-585.94,763.06,10.38,14.04,34.79,5.42,24.13,-13.46
1,11403,5,-98.39,-994.14,146.85,91.55,9.16,-7.93,32.19,39.99,-4.48
2,11415,5,-163.33,-999.27,-2.2,30.52,8.54,-19.53,21.8,38.22,4.11
3,11427,0,0.0,,,,,,,,
4,11428,0,0.0,,,,,,,,
5,11430,0,0.0,,,,,,,,
6,11431,1,0.0,,,,,,,,
0,11436,4,231.32,-580.57,764.16,7.93,10.99,34.18,4.88,25.29,-13.79
1,11448,4,-96.92,-994.75,145.63,94.6,12.82,-4.27,32.42,39.79,-4.94
2,11459,5,-161.74,-997.8,-4.64,26.86,14.04,-15.26,22.17,37.74,4.02
3,11474,1,0.0,,,,,,,,
4,11476,0,0.0,,,,,,,,
5,11479,0,0.0,,,,,,,,
6,11480,0,0.0,,,,,,,,
0,11484,4,231.32,-581.18,762.82,6.71,7.32,31.13,5.04,24.95,-13.17
1,11495,5,-96.44,-993.29,146.24,87.89,12.21,-6.1,31.91,40.71,-4.79
2,11507,4,-166.02,-997.31,-4.88,25.02,10.99,-15.26,22.17,37.74,4.02
3,11518,0,0.0,,,,,,,,
4,11520,0,0.0,,,,,,,,
5,11522,0,0.0,,,,,,,,
6,11523,1,0.0,,,,,,,,
0,11527,3,232.3,-579.35,764.28,6.71,4.88,33.57,5.04,24.95,-13.17
1,11541,5,-96.92,-993.77,147.09,87.28,11.6,-3.05,32.29,40.59,-5.22
2,11553,4,-160.16,-997.07,-5.25,24.41,7.93,-12.82,22.3,38.49,4.39
3,11565,0,0.0,,,,,,,,
4,11567,0,0.0,,,,,,,,
5,11568,1,0.0,,,,,,,,
6,11570,0,0.0,,,,,,,,
0,11574,4,229.13,-577.15,765.38,4.27,1.22,30.52,4.15,25.43,-13.43
1,11585,5,-95.83,-993.9,147.46,90.33,12.82,-2.44,31.92,39.86,-5.29
2,11597,4,-165.41,-997.68,-1.83,23.19,-0.61,-17.09,21.91,38.35,4.27
3,11613,0,0.0,,,,,,,,
4,11615,0,0.0,,,,,,,,
5,11616,0,0.0,,,,,,,,
6,11618,0,0.0,,,,,,,,
0,11621,5,228.88,-575.56,766.36,9.16,6.1,31.13,4.03,24.78,-13.49
1,11633,4,-98.39,-990.84,147.83,92.16,12.21,-4.88,32.04,40.82,-4.50
2,11645,5,-167.72,-994.14,-1.22,25.63,-2.44,-15.87,22.17,38.35,3.82
3,11657,0,0.0,,,,,,,,
4,11659,0,0.0,,,,,,,,
5,11660,1,0.0,,,,,,,,
6,11662,0,0.0,,,,,,,,
0,11666,4,229.37,-576.66,767.58,12.21,7.93,29.91,3.67,24.93,-13.56
1,11677,5,-98.02,-995.24,146.48,92.77,10.38,-3.05,31.41,40.70,-3.66
2,11694,4,-168.33,-996.83,-4.76,26.86,2.44,-18.31,22.39,38.15,3.03
3,11705,0,0.0,,,,,,,,
4,11707,0,0.0,,,,,,,,
5,11708,1,0.0,,,,,,,,
6,11710,0,0.0,,,,,,,,
0,11713,5,226.93,-573.49,769.9,17.7,13.43,29.91,3.74,25.66,-13.28
1,11725,5,-98.14,-993.77,146.0,92.16,12.82,-6.1,31.34,41.08,-4.94
2,11738,4,-172.85,-996.95,-4.03,23.8,-1.83,-20.14,22.57,37.94,3.81
3,11749,0,0.0,,,,,,,,
4,11751,0,0.0,,,,,,,,
5,11753,0,0.0,,,,,,,,
6,11754,0,0.0,,,,,,,,
0,11761,5,230.83,-574.83,767.46,19.53,15.26,26.25,3.15,26.26,-14.17
1,11773,6,-99.24,-990.97,146.85,91.55,11.6,-4.27,31.81,40.89,-5.80
2,11786,4,-174.32,-996.46,-2.44,20.14,6.71,-20.14,22.58,37.67,3.31
3,11797,0,0.0,,,,,,,,
4,11799,0,0.0,,,,,,,,
5,11801,0,0.0,,,,,,,,
6,11802,0,0.0,,,,,,,,
0,11806,4,229.25,-575.68,771.61,17.7,12.82,21.36,3.39,26.31,-13.55
1,11817,5,-96.68,-993.16,147.58,90.94,14.65,-3.05,31.81,40.89,-5.80
2,11829,5,-168.7,-996.09,-2.32,20.14,-1.22,-22.58,22.42,38.48,3.83
3,11844,0,0.0,,,,,,,,
4,11846,0,0.0,,,,,,,,
5,11848,0,0.0,,,,,,,,
6,11849,0,0.0,,,,,,,,
0,11853,4,229.74,-573.12,768.19,18.92,18.31,25.63,4.04,26.54,-14.54
1,11865,5,-98.14,-992.68,146.36,92.16,11.6,-9.16,31.36,40.93,-5.47
2,11877,5,-175.9,-993.77,-1.59,20.14,-4.88,-23.19,22.53,37.60,3.89
3,11889,0,0.0,,,,,,,,
4,11890,0,0.0,,,,,,,,
5,11892,0,0.0,,,,,,,,
6,11893,1,0.0,,,,,,,,
0,11897,4,231.32,-572.14,766.85,18.31,17.7,26.86,3.76,26.50,-14.51
1,11913,5,-101.07,-993.16,147.46,91.55,10.99,-6.1,31.21,40.69,-4.85
2,11925,5,-180.18,-993.16,-0.61,23.19,-3.05,-25.63,22.88,37.71,3.77
3,11937,0,0.0,,,,,,,,
4,11938,0,0.0,,,,,,,,
5,11940,0,0.0,,,,,,,,
6,11942,0,0.0,,,,,,,,
0,11959,5,234.86,-572.39,770.26,23.19,21.36,29.3,3.72,26.39,-13.15
1,11973,5,-101.32,-993.9,144.53,90.33,9.16,-10.38,31.07,41.13,-4.47
2,11985,5,-183.59,-994.51,-2.32,21.36,-7.32,-24.41,22.08,37.95,2.70
3,12000,0,0.0,,,,,,,,
4,12002,0,0.0,,,,,,,,
5,12003,1,0.0,,,,,,,,
6,12005,0,0.0,,,,,,,,
0,12008,5,235.6,-572.14,767.21,19.53,18.92,26.25,3.66,26.15,-13.70
1,12020,4,-100.83,-992.92,146.36,91.55,12.21,-8.54,31.07,41.13,-4.47
2,12032,4,-184.57,-993.9,-0.12,20.75,-1.83,-23.19,22.0,37.88,3.19
3,12043,0,0.0,,,,,,,,
4,12045,0,0.0,,,,,,,,
5,12047,0,0.0,,,,,,,,
6,12048,0,0.0,,,,,,,,
0,12052,4,232.06,-571.9,770.39,19.53,14.65,25.63,4.08,26.00,-14.82
1,12063,5,-100.34,-992.07,147.22,90.94,11.6,-5.49,31.12,40.92,-4.60
2,12080,4,-185.91,-993.16,0.85,20.75,3.05,-22.58,21.85,38.33,2.89
3,12091,0,0.0,,,,,,,,
4,12093,0,0.0,,,,,,,,
5,12095,0,0.0,,,,,,,,
6,12096,0,0.0,,,,,,,,
0,12100,4,232.18,-574.95,770.14,20.75,19.53,28.69,4.42,26.17,-14.17
1,12111,5,-99.37,-991.46,146.48,90.94,11.6,-7.93,30.86,41.10,-5.04
2,12124,5,-185.3,-993.9,-3.42,23.8,9.77,-22.58,22.02,38.11,3.71
3,12135,1,0.0,,,,,,,,
4,12137,0,0.0,,,,,,,,
5,12139,0,0.0,,,,,,,,
6,12152,0,0.0,,,,,,,,
0,12155,6,235.47,-573.24,768.19,23.19,22.58,29.3,3.97,26.23,-13.65
1,12168,4,-102.66,-993.29,146.48,89.72,10.38,-9.77,31.48,41.03,-4.72
2,12180,4,-191.77,-993.65,-0.37,18.92,-0.61,-23.8,21.4,38.26,3.82
3,12191,0,0.0,,,,,,,,
4,12193,0,0.0,,,,,,,,
5,12195,0,0.0,,,,,,,,
6,12196,0,0.0,,,,,,,,
0,12200,5,240.6,-569.82,766.85,21.36,22.58,29.3,4.24,26.15,-14.83
1,12212,5,-104.61,-993.41,146.12,88.5,10.99,-9.77,31.29,41.49,-5.07
2,12224,5,-193.12,-990.11,2.32,20.14,-0.61,-21.36,21.5,38.44,4.39
3,12239,0,0.0,,,,,,,,
4,12241,0,0.0,,,,,,,,
5,12243,0,0.0,,,,,,,,
6,12244,0,0.0,,,,,,,,
0,12249,4,239.99,-570.8,769.78,24.41,23.19,27.47,4.25,26.00,-14.36
1,12260,5,-103.27,-992.19,147.83,88.5,9.77,-7.93,31.91,40.70,-4.57
2,12272,5,-190.67,-989.99,0.12,18.31,-3.66,-21.36,21.02,38.15,4.38
3,12283,1,0.0,,,,,,,,
4,12285,0,0.0,,,,,,,,
5,12288,0,0.0,,,,,,,,
6,12289,1,0.0,,,,,,,,
0,12293,4,240.36,-571.17,767.82,23.19,23.19,27.47,4.37,26.20,-12.96
1,12308,5,-105.71,-992.55,147.58,87.89,9.16,-9.77,31.63,40.63,-5.35
2,12320,5,-199.71,-990.84,0.98,18.92,0.0,-18.31,20.87,38.55,3.09
3,12332,1,0.0,,,,,,,,
4,12334,0,0.0,,,,,,,,
5,12336,0,0.0,,,,,,,,
6,12337,1,0.0,,,,,,,,
0,12341,4,242.07,-568.6,765.87,25.02,21.36,23.8,4.63,26.55,-13.72
1,12352,5,-108.76,-995.85,145.26,84.84,12.21,-9.16,31.69,40.76,-4.39
2,12364,4,-204.22,-990.72,4.27,19.53,-6.71,-16.48,20.87,38.55,3.09
3,12379,1,0.0,,,,,,,,
4,12381,0,0.0,,,,,,,,
5,12383,0,0.0,,,,,,,,
6,12384,0,0.0,,,,,,,,
0,12388,4,239.5,-572.14,770.51,29.91,21.36,23.19,4.72,26.84,-14.59
1,12399,5,-107.54,-993.77,146.97,86.67,12.82,-4.27,31.24,40.82,-4.38
2,12411,6,-202.64,-992.31,0.37,24.41,4.88,-12.82,21.61,38.81,3.93
3,12424,0,0.0,,,,,,,,
4,12425,0,0.0,,,,,,,,
5,12427,0,0.0,,,,,,,,
6,12429,0,0.0,,,,,,,,
0,12432,4,239.99,-572.63,767.94,26.86,14.65,17.7,3.99,26.34,-13.75
1,12444,4,-105.71,-988.4,147.95,89.72,14.65,-3.66,31.24,40.60,-4.86
2,12460,5,-198.85,-991.58,1.22,22.58,6.1,-8.54,21.3,38.12,3.19
3,12471,1,0.0,,,,,,,,
4,12473,0,0.0,,,,,,,,
5,12475,0,0.0,,,,,,,,
6,12476,1,0.0,,,,,,,,
0,12480,4,242.31,-571.04,764.89,27.47,15.26,16.48,4.52,26.42,-14.67
1,12492,4,-104.13,-988.65,148.56,87.89,12.21,0.61,31.93,41.08,-4.85
2,12504,5,-200.81,-986.21,6.84,23.8,-0.61,-8.54,20.78,38.42,3.10
3,12516,0,0.0,,,,,,,,
4,12517,0,0.0,,,,,,,,
5,12519,0,0.0,,,,,,,,
6,12524,0,0.0,,,,,,,,
0,12528,4,241.7,-573.73,767.46,20.75,14.04,20.75,4.19,26.62,-13.29
1,12539,6,-106.81,-993.65,146.85,89.72,13.43,-1.83,31.86,41.05,-5.37
2,12552,5,-200.2,-993.29,1.83,26.86,10.99,-3.66,20.47,38.43,3.82
3,12564,0,0.0,,,,,,,,
4,12565,0,0.0,,,,,,,,
5,12567,0,0.0,,,,,,,,
6,12569,0,0.0,,,,,,,,
0,12572,4,239.75,-571.66,766.85,21.36,14.04,20.75,4.36,26.18,-13.33
1,12584,5,-108.4,-993.65,146.61,90.94,13.43,-2.44,31.8,40.69,-4.66
2,12596,5,-201.78,-990.6,6.1,25.02,7.32,-1.22,20.24,38.78,4.35
3,12612,0,0.0,,,,,,,,
4,12613,0,0.0,,,,,,,,
5,12615,0,0.0,,,,,,,,
6,12616,1,0.0,,,,,,,,
0,12620,4,244.14,-570.8,764.89,23.8,15.87,17.09,3.52,26.18,-13.87
1,12633,4,-108.03,-993.16,146.48,91.55,12.21,1.22,31.52,40.70,-5.41
2,12644,5,-199.22,-988.89,3.78,27.47,9.16,-1.22,20.29,38.78,2.82
3,12656,0,0.0,,,,,,,,
4,12657,0,0.0,,,,,,,,
5,12659,0,0.0,,,,,,,,
6,12661,0,0.0,,,,,,,,
0,12664,4,239.99,-573.24,767.46,23.8,15.26,20.75,3.87,26.61,-13.05
1,12681,4,-106.32,-992.43,147.58,91.55,10.99,-4.27,31.63,40.77,-3.86
2,12692,5,-203.61,-988.65,2.69,30.52,0.61,-0.61,20.9,38.66,4.82
3,12704,0,0.0,,,,,,,,
4,12705,0,0.0,,,,,,,,
5,12707,0,0.0,,,,,,,,
6,12709,0,0.0,,,,,,,,
0,12712,4,247.92,-573.49,764.28,23.8,16.48,23.8,3.87,26.61,-13.05
1,12724,3,-106.93,-990.23,147.46,90.33,11.6,-4.88,31.63,40.77,-3.86
2,12734,5,-200.44,-989.99,3.17,29.91,1.22,0.61,21.04,38.85,4.14
3,12749,0,0.0,,,,,,,,
4,12751,0,0.0,,,,,,,,
5,12753,0,0.0,,,,,,,,
6,12754,0,0.0,,,,,,,,
0,12759,4,240.36,-569.95,764.4,19.53,15.87,25.63,3.85,26.33,-14.29
1,12770,5,-106.81,-991.09,145.63,91.55,10.38,-4.27,31.45,40.88,-4.16
2,12782,5,-202.76,-990.36,3.54,31.74,7.93,0.61,20.96,38.94,3.72
3,12793,1,0.0,,,,,,,,
4,12795,0,0.0,,,,,,,,
5,12797,0,0.0,,,,,,,,
6,12798,0,0.0,,,,,,,,
0,12803,4,243.16,-572.63,765.99,15.26,12.21,21.97,3.89,26.44,-13.38
1,12814,5,-107.54,-992.55,146.36,93.99,10.99,-1.83,31.59,40.99,-4.10
2,12831,5,-206.18,-989.01,0.85,33.57,-0.61,1.22,20.47,38.99,3.91
3,12843,1,0.0,,,,,,,,
4,12845,0,0.0,,,,,,,,
5,12847,0,0.0,,,,,,,,
6,12848,0,0.0,,,,,,,,
0,12852,4,238.4,-574.22,770.14,19.53,14.65,23.19,4.02,26.04,-13.75
1,12863,5,-103.64,-990.11,147.34,89.11,10.38,-1.22,31.26,40.28,-3.63
2,12875,5,-194.82,-990.36,0.12,31.13,-0.61,1.22,20.72,38.23,3.70
3,12888,0,0.0,,,,,,,,
4,12889,0,0.0,,,,,,,,
5,12891,0,0.0,,,,,,,,
6,12892,1,0.0,,,,,,,,
0,12900,4,235.47,-569.58,767.46,14.65,14.04,25.63,3.96,25.73,-14.04
1,12911,5,-106.93,-990.11,147.95,94.6,9.77,-4.88,30.98,40.81,-4.36
2,12923,5,-203.25,-989.01,1.71,32.96,7.93,-2.44,20.72,38.23,3.70
3,12934,0,0.0,,,,,,,,
4,12936,0,0.0,,,,,,,,
5,12938,0,0.0,,,,,,,,
6,12939,0,0.0,,,,,,,,
0,12943,4,241.94,-569.34,766.36,15.87,16.48,19.53,4.57,25.95,-13.60
1,12954,5,-107.3,-991.09,146.61,92.77,10.99,0.61,30.88,40.65,-5.26
2,12966,6,-202.76,-989.26,0.24,34.18,1.83,-1.83,20.76,38.73,4.02
3,12982,0,0.0,,,,,,,,
4,12984,0,0.0,,,,,,,,
5,12986,0,0.0,,,,,,,,
6,12987,0,0.0,,,,,,,,
0,12991,4,240.6,-571.9,768.43,14.04,16.48,20.75,4.37,26.32,-14.28
1,13002,5,-104.74,-991.33,144.78,91.55,9.16,-2.44,31.08,40.75,-4.36
2,13015,4,-200.93,-995.85,-2.44,29.91,4.88,3.05,21.24,38.88,3.61
3,13026,0,0.0,,,,,,,,
4,13028,0,0.0,,,,,,,,
5,13030,0,0.0,,,,,,,,
6,13031,0,0.0,,,,,,,,
0,13035,4,242.55,-566.89,769.17,13.43,20.14,23.19,4.35,26.04,-13.67
1,13050,6,-109.37,-992.31,145.39,94.6,9.77,-7.93,30.94,40.71,-3.76
2,13063,4,-199.58,-987.67,0.49,28.08,1.83,1.83,21.13,38.45,4.04
3,13074,0,0.0,,,,,,,,
4,13076,0,0.0,,,,,,,,
5,13077,1,0.0,,,,,,,,
6,13079,0,0.0,,,,,,,,
0,13083,4,245.48,-570.92,768.43,17.09,24.41,23.19,4.53,26.18,-14.42
1,13094,6,-107.79,-994.14,145.75,93.99,10.38,-7.32,30.68,40.67,-3.47
2,13107,4,-202.51,-997.68,-10.01,25.63,3.05,0.61,21.29,38.77,4.03
3,13118,0,0.0,,,,,,,,
4,13124,0,0.0,,,,,,,,
5,13125,1,0.0,,,,,,,,
6,13127,0,0.0,,,,,,,,
0,13131,4,244.14,-565.67,767.21,18.92,17.7,21.36,4.65,25.81,-14.42
1,13143,5,-108.4,-990.6,145.51,89.72,12.21,-5.49,30.79,40.67,-4.80
2,13155,4,-197.63,-989.99,0.24,26.25,-4.27,-1.22,20.92,38.50,4.74
3,13166,0,0.0,,,,,,,,
4,13168,0,0.0,,,,,,,,
5,13170,0,0.0,,,,,,,,
6,13171,0,0.0,,,,,,,,
0,13175,4,240.11,-568.36,771.48,17.7,17.7,23.8,4.71,26.10,-13.35
1,13187,5,-106.69,-992.43,145.02,91.55,9.77,-6.1,30.92,41.26,-3.96
2,13203,4,-209.84,-994.14,-5.62,26.25,-6.1,-1.83,21.2,38.11,3.66
3,13214,0,0.0,,,,,,,,
4,13216,0,0.0,,,,,,,,
5,13218,0,0.0,,,,,,,,
6,13219,0,0.0,,,,,,,,
0,13223,5,246.83,-567.63,768.8,21.36,15.87,20.75,4.15,25.65,-13.57
1,13235,4,-111.33,-995.12,144.78,92.16,12.82,0.0,30.92,41.26,-3.96
2,13246,4,-204.22,-992.92,-0.98,26.86,8.54,9.16,21.19,38.46,4.53
3,13257,0,0.0,,,,,,,,
4,13259,0,0.0,,,,,,,,
5,13261,0,0.0,,,,,,,,
6,13262,0,0.0,,,,,,,,
0,13271,4,245.36,-570.19,769.41,21.36,13.43,18.31,4.31,26.03,-13.65
1,13282,5,-107.79,-990.6,144.78,90.33,13.43,-1.22,31.08,40.87,-4.09
2,13294,4,-194.46,-989.26,0.61,25.02,-0.61,6.1,21.37,38.50,4.15
3,13305,0,0.0,,,,,,,,
4,13307,0,0.0,,,,,,,,
5,13309,0,0.0,,,,,,,,
6,13310,0,0.0,,,,,,,,
0,13315,4,244.26,-567.63,769.04,16.48,11.6,19.53,4.53,26.76,-14.55
1,13326,5,-109.37,-993.65,143.8,90.94,12.21,0.0,31.08,40.73,-4.09
2,13338,4,-204.22,-993.04,-0.12,24.41,5.49,6.71,21.56,38.66,3.85
3,13353,0,0.0,,,,,,,,
4,13356,0,0.0,,,,,,,,
5,13357,0,0.0,,,,,,,,
6,13359,0,0.0,,,,,,,,
0,13362,5,245.61,-563.84,769.41,15.87,8.54,15.26,4.87,26.53,-14.29
1,13374,4,-107.91,-993.9,144.65,89.72,13.43,2.44,31.4,41.24,-4.04
2,13386,4,-193.73,-993.65,-4.39,21.97,1.83,7.32,21.63,38.43,4.58
3,13398,0,0.0,,,,,,,,
4,13400,0,0.0,,,,,,,,
5,13401,0,0.0,,,,,,,,
6,13403,0,0.0,,,,,,,,
0,13406,5,242.92,-568.24,770.26,22.58,11.6,16.48,4.43,26.44,-14.83
1,13422,4,-109.25,-992.68,144.65,87.28,14.04,-3.05,31.05,41.06,-6.09
2,13434,4,-196.41,-990.6,0.24,21.36,7.32,7.32,21.15,38.26,3.49
3,13446,0,0.0,,,,,,,,
4,13447,1,0.0,,,,,,,,
5,13449,0,0.0,,,,,,,,
6,13451,0,0.0,,,,,,,,
0,13454,4,243.9,-566.65,768.43,22.58,11.6,16.48,4.64,26.67,-14.38
1,13466,4,-107.67,-994.02,143.8,88.5,12.82,0.61,31.56,40.55,-4.46
2,13478,3,-191.41,-994.38,-1.83,21.97,6.1,7.32,21.15,38.26,3.49
3,13489,0,0.0,,,,,,,,
4,13490,1,0.0,,,,,,,,
5,13496,0,0.0,,,,,,,,
6,13498,0,0.0,,,,,,,,
0,13501,3,241.21,-565.19,768.31,28.69,13.43,15.26,4.64,26.67,-14.38
1,13512,4,-104.98,-990.97,144.53,84.23,16.48,0.61,30.97,40.81,-4.36
2,13523,6,-185.3,-989.99,1.46,20.75,1.83,1.83,20.78,38.76,3.63
3,13536,0,0.0,,,,,,,,
4,13537,0,0.0,,,,,,,,
5,13539,0,0.0,,,,,,,,
6,13541,0,0.0,,,,,,,,
0,13544,4,249.15,-564.94,766.97,28.08,16.48,19.53,4.87,26.88,-14.01
1,13556,4,-112.3,-995.12,143.55,89.72,13.43,-2.44,31.65,41.13,-4.04
2,13572,5,-195.31,-989.87,1.71,20.75,0.0,0.0,21.5,38.83,4.03
3,13583,0,0.0,,,,,,,,
4,13585,0,0.0,,,,,,,,
5,13587,0,0.0,,,,,,,,
6,13588,0,0.0,,,,,,,,
0,13592,4,238.53,-574.83,773.68,29.91,15.87,18.31,4.25,26.28,-14.20
1,13603,5,-107.91,-989.75,145.75,89.72,14.04,-3.66,31.53,40.88,-5.16
2,13616,5,-194.7,-991.46,0.12,25.02,6.1,0.0,20.87,38.50,3.67
3,13627,1,0.0,,,,,,,,
4,13629,0,0.0,,,,,,,,
5,13631,0,0.0,,,,,,,,
6,13632,0,0.0,,,,,,,,
0,13636,4,245.36,-564.82,766.72,27.47,14.65,15.87,4.86,26.09,-14.83
1,13651,6,-106.93,-993.16,144.9,87.28,14.65,0.0,31.07,40.54,-4.31
2,13664,4,-191.89,-992.68,4.88,24.41,6.71,-3.05,20.96,38.31,4.31
3,13675,0,0.0,,,,,,,,
4,13677,0,0.0,,,,,,,,
5,13678,1,0.0,,,,,,,,
6,13680,0,0.0,,,,,,,,
0,13684,4,242.19,-572.27,768.55,26.25,15.87,20.75,4.8,26.20,-13.38
1,13696,5,-109.62,-991.82,144.78,91.55,11.6,-4.88,31.54,40.56,-4.83
2,13708,4,-197.63,-989.01,-0.61,25.63,0.0,-4.27,21.17,38.99,5.00
3,13723,0,0.0,,,,,,,,
4,13725,0,0.0,,,,,,,,
5,13726,0,0.0,,,,,,,,
6,13728,0,0.0,,,,,,,,
0,13731,5,244.26,-570.56,768.31,23.8,17.09,21.36,3.65,26.15,-14.32
1,13744,4,-110.35,-996.34,144.29,89.72,12.21,-2.44,31.54,40.56,-4.83
2,13755,4,-196.9,-995.85,-0.24,23.8,6.1,-5.49,21.07,37.98,4.61
3,13766,0,0.0,,,,,,,,
4,13768,0,0.0,,,,,,,,
5,13769,1,0.0,,,,,,,,
6,13771,0,0.0,,,,,,,,
0,13775,4,242.19,-571.29,765.99,26.25,15.87,20.75,3.89,26.49,-13.77
1,13791,4,-107.91,-988.4,147.46,90.33,13.43,-3.05,31.35,41.06,-5.31
2,13803,4,-195.68,-988.53,4.27,28.08,6.1,-9.16,20.9,38.64,4.35
3,13814,0,0.0,,,,,,,,
4,13816,0,0.0,,,,,,,,
5,13817,1,0.0,,,,,,,,
6,13819,0,0.0,,,,,,,,
0,13822,6,242.92,-570.92,766.97,18.31,18.31,22.58,3.81,25.96,-14.14
1,13835,5,-112.18,-995.61,144.65,92.16,10.99,-3.66,31.38,41.24,-4.21
2,13847,4,-198.24,-994.63,-1.34,27.47,-0.61,-7.93,20.58,38.26,4.35
3,13858,0,0.0,,,,,,,,
4,13860,0,0.0,,,,,,,,
5,13865,0,0.0,,,,,,,,
6,13868,0,0.0,,,,,,,,
0,13871,5,241.82,-570.31,767.46,22.58,18.31,23.19,3.97,26.04,-14.53
1,13883,5,-109.86,-991.94,146.24,92.77,11.6,-5.49,31.27,40.75,-5.42
2,13895,4,-199.1,-991.94,-0.24,26.86,5.49,-7.93,21.46,38.57,4.43
3,13906,0,0.0,,,,,,,,
4,13908,0,0.0,,,,,,,,
5,13911,0,0.0,,,,,,,,
6,13912,0,0.0,,,,,,,,
0,13916,4,237.43,-572.27,769.9,25.02,21.97,27.47,4.05,26.21,-14.62
1,13927,5,-111.33,-991.82,145.63,92.77,12.21,-7.32,31.45,40.49,-5.14
2,13943,4,-199.1,-990.36,0.37,31.74,15.87,-4.27,20.47,38.48,4.28
3,13955,0,0.0,,,,,,,,
4,13957,0,0.0,,,,,,,,
5,13958,0,0.0,,,,,,,,
6,13960,0,0.0,,,,,,,,
0,13963,5,249.76,-568.24,763.67,21.97,23.19,28.69,4.41,26.29,-14.40
1,13975,5,-109.86,-991.46,145.87,89.72,11.6,-4.88,31.42,40.59,-4.86
2,13987,3,-194.09,-990.11,-0.37,30.52,7.93,-9.16,20.47,38.48,4.28
3,13998,0,0.0,,,,,,,,
4,14000,0,0.0,,,,,,,,
5,14002,0,0.0,,,,,,,,
6,14003,0,0.0,,,,,,,,
0,14007,4,248.9,-571.29,766.6,21.36,19.53,25.02,4.05,26.50,-14.10
1,14022,4,-112.18,-991.58,145.87,90.94,12.21,-4.27,31.75,40.30,-5.02
2,14034,5,-200.2,-990.84,-1.1,29.91,5.49,-8.54,20.57,38.50,3.82
3,14046,0,0.0,,,,,,,,
4,14048,0,0.0,,,,,,,,
5,14049,0,0.0,,,,,,,,
6,14051,0,0.0,,,,,,,,
0,14054,5,247.19,-570.07,766.97,21.36,20.75,25.02,4.11,25.49,-13.88
1,14066,4,-113.53,-992.31,144.9,92.77,11.6,-5.49,31.4,40.64,-4.75
2,14078,5,-197.75,-990.84,-1.83,26.86,11.6,-6.1,21.25,38.50,4.04
3,14094,0,0.0,,,,,,,,
4,14096,0,0.0,,,,,,,,
5,14097,0,0.0,,,,,,,,
6,14099,0,0.0,,,,,,,,
0,14102,5,249.88,-570.07,766.11,20.75,22.58,20.75,3.94,25.60,-14.03
1,14114,4,-109.99,-992.68,145.14,90.33,10.38,-3.66,30.96,40.80,-5.99
2,14127,4,-201.42,-991.33,-1.83,25.63,1.22,-7.32,21.44,37.87,5.13
3,14138,0,0.0,,,,,,,,
4,14140,0,0.0,,,,,,,,
5,14141,1,0.0,,,,,,,,
6,14143,0,0.0,,,,,,,,
0,14147,4,249.27,-568.73,766.6,27.47,27.47,20.14,4.35,26.31,-13.22
1,14162,5,-111.82,-992.31,145.26,94.6,11.6,-6.1,31.67,41.04,-5.80
2,14175,4,-197.27,-991.46,0.12,25.63,7.32,-7.93,21.19,38.23,5.04
3,14186,0,0.0,,,,,,,,
4,14188,0,0.0,,,,,,,,
5,14189,1,0.0,,,,,,,,
6,14191,0,0.0,,,,,,,,
0,14194,5,249.76,-568.36,765.87,21.36,28.08,25.63,4.35,25.99,-13.84
1,14206,6,-112.3,-993.16,145.02,93.38,9.77,-9.16,31.13,41.08,-4.13
2,14219,4,-203.74,-990.48,0.49,26.86,6.71,-7.32,20.61,37.92,5.68
3,14230,0,0.0,,,,,,,,
4,14232,0,0.0,,,,,,,,
5,14237,0,0.0,,,,,,,,
6,14239,0,0.0,,,,,,,,
0,14242,5,250.37,-567.5,764.28,26.25,31.13,22.58,4.38,26.01,-15.11
1,14255,4,-111.69,-990.84,143.55,94.6,10.38,-5.49,31.03,41.00,-4.87
2,14267,4,-198.85,-991.7,-1.34,28.08,1.22,-9.77,20.97,38.20,4.42
3,14278,0,0.0,,,,,,,,
4,14280,0,0.0,,,,,,,,
5,14281,1,0.0,,,,,,,,
6,14283,0,0.0,,,,,,,,
0,14286,4,253.66,-569.82,765.26,24.41,28.69,27.47,4.38,26.01,-15.11
1,14298,4,-113.53,-994.38,142.82,90.94,9.77,-9.77,31.03,41.00,-4.87
2,14313,4,-201.78,-988.77,-1.46,29.3,8.54,-6.1,20.47,38.67,4.33
3,14324,0,0.0,,,,,,,,
4,14326,0,0.0,,,,,,,,
5,14327,0,0.0,,,,,,,,
6,14329,0,0.0,,,,,,,,
0,14332,6,256.47,-568.12,761.47,21.97,27.47,27.47,4.72,25.70,-13.95
1,14345,5,-114.26,-990.97,143.92,89.72,10.99,-7.93,31.31,41.55,-4.08
2,14357,4,-202.27,-991.09,-0.85,27.47,3.05,-6.71,20.76,38.72,4.19
3,14368,0,0.0,,,,,,,,
4,14370,0,0.0,,,,,,,,
5,14371,1,0.0,,,,,,,,
6,14373,0,0.0,,,,,,,,
0,14377,5,256.1,-569.58,763.06,18.31,20.75,28.08,6.01,26.01,-14.62
1,14393,4,-115.6,-993.41,142.82,92.77,12.82,-7.32,30.99,41.80,-4.64
2,14405,4,-204.71,-990.36,-3.05,26.86,1.83,-5.49,20.98,38.55,5.14
3,14416,0,0.0,,,,,,,,
4,14418,0,0.0,,,,,,,,
5,14419,1,0.0,,,,,,,,
6,14422,0,0.0,,,,,,,,
0,14425,5,254.27,-570.19,764.65,17.7,15.87,26.86,5.11,26.01,-13.68
1,14437,5,-113.53,-992.92,143.92,90.33,10.99,-6.1,31.34,41.03,-4.32
2,14449,4,-200.81,-993.16,-0.61,29.3,3.66,-4.27,20.46,38.76,4.79
3,14465,0,0.0,,,,,,,,
4,14467,0,0.0,,,,,,,,
5,14468,0,0.0,,,,,,,,
6,14470,0,0.0,,,,,,,,
0,14473,5,260.99,-568.36,764.77,14.04,14.65,30.52,4.9,25.82,-14.62
1,14485,5,-116.46,-992.07,143.68,91.55,9.77,-6.71,31.35,41.49,-4.47
2,14497,4,-204.83,-991.33,-4.64,26.86,4.88,-3.66,21.0,38.00,5.55
3,14509,0,0.0,,,,,,,,
4,14511,0,0.0,,,,,,,,
5,14512,1,0.0,,,,,,,,
6,14514,0,0.0,,,,,,,,
0,14518,4,254.64,-567.5,766.36,12.82,13.43,28.69,4.7,26.14,-13.53
1,14529,5,-115.36,-991.82,144.29,92.16,10.99,-5.49,31.16,41.55,-4.65
2,14545,5,-204.59,-988.16,-2.81,28.69,0.0,-3.66,21.29,38.59,3.93
3,14557,0,0.0,,,,,,,,
4,14559,0,0.0,,,,,,,,
5,14560,0,0.0,,,,,,,,
6,14562,0,0.0,,,,,,,,
0,14565,5,256.71,-568.24,764.4,13.43,10.38,26.86,5.25,25.34,-13.29
1,14577,4,-116.33,-992.43,142.46,88.5,11.6,-3.05,31.16,42.20,-4.09
2,14589,4,-206.42,-990.23,-3.05,29.3,-5.49,-4.88,21.29,38.59,3.93
3,14600,0,0.0,,,,,,,,
4,14602,0,0.0,,,,,,,,
5,14607,0,0.0,,,,,,,,
6,14609,0,0.0,,,,,,,,
0,14612,5,257.57,-564.45,766.11,15.26,14.04,27.47,5.11,25.92,-13.65
1,14624,4,-115.36,-992.07,144.29,90.94,11.6,-6.71,31.24,41.39,-4.92
2,14637,4,-203.25,-991.94,-5.0,25.63,-3.66,-3.05,21.45,38.57,4.52
3,14648,0,0.0,,,,,,,,
4,14650,0,0.0,,,,,,,,
5,14651,0,0.0,,,,,,,,
6,14653,0,0.0,,,,,,,,
0,14656,5,258.06,-564.58,764.77,17.7,13.43,24.41,4.69,25.57,-13.83
1,14668,4,-115.97,-991.21,145.39,89.11,10.99,-6.1,31.48,41.26,-4.97
2,14685,4,-203.49,-990.48,-4.15,26.25,-4.27,-4.88,21.39,38.43,4.03
3,14696,0,0.0,,,,,,,,
4,14698,0,0.0,,,,,,,,
5,14699,0,0.0,,,,,,,,
6,14701,0,0.0,,,,,,,,
0,14704,5,257.08,-565.06,765.5,19.53,15.26,22.58,5.02,26.06,-14.03
1,14716,5,-117.07,-990.84,144.53,89.11,12.21,-3.66,31.53,41.36,-4.33
2,14729,4,-206.79,-990.11,-3.3,25.63,-6.1,-3.66,20.92,38.46,4.00
3,14740,0,0.0,,,,,,,,
4,14742,0,0.0,,,,,,,,
5,14743,1,0.0,,,,,,,,
6,14745,0,0.0,,,,,,,,
0,14748,5,257.57,-563.11,766.48,17.09,10.99,17.7,4.94,25.60,-15.17
1,14765,4,-116.82,-993.16,142.7,91.55,13.43,-0.61,31.32,41.53,-5.70
2,14777,4,-204.22,-993.29,-1.34,23.19,-3.05,-2.44,21.4,37.95,4.93
3,14788,0,0.0,,,,,,,,
4,14790,0,0.0,,,,,,,,
5,14791,1,0.0,,,,,,,,
6,14793,0,0.0,,,,,,,,
0,14797,4,254.52,-563.96,767.33,21.97,15.87,21.36,4.83,25.95,-14.12
1,14809,4,-117.19,-991.09,144.53,91.55,11.6,-4.88,31.32,41.53,-5.70
2,14820,4,-204.22,-988.65,-2.69,25.02,-1.22,-1.83,21.04,38.26,4.64
3,14835,0,0.0,,,,,,,,
4,14837,0,0.0,,,,,,,,
5,14838,1,0.0,,,,,,,,
6,14840,0,0.0,,,,,,,,
0,14843,6,255.49,-562.74,767.94,21.97,14.65,20.75,4.59,25.34,-14.43
1,14856,5,-116.82,-991.33,143.8,90.94,11.6,-2.44,31.85,41.16,-5.27
2,14868,4,-203.25,-991.09,-4.39,23.8,1.22,-1.83,20.83,39.17,3.86
3,14879,0,0.0,,,,,,,,
4,14881,0,0.0,,,,,,,,
5,14883,0,0.0,,,,,,,,
6,14884,0,0.0,,,,,,,,
0,14888,5,256.71,-563.84,766.72,22.58,12.82,20.75,4.44,26.11,-14.27
1,14904,5,-118.04,-990.48,144.9,90.94,12.82,-3.05,31.57,41.00,-5.51
2,14916,4,-204.35,-989.62,-5.62,24.41,-4.27,-1.83,21.0,38.78,5.22
3,14927,0,0.0,,,,,,,,
4,14929,0,0.0,,,,,,,,
5,14931,0,0.0,,,,,,,,
6,14932,0,0.0,,,,,,,,
0,14937,4,255.25,-565.19,766.85,21.36,13.43,19.53,4.32,25.92,-14.87
1,14948,5,-117.68,-992.31,143.92,89.11,12.21,-1.83,31.81,40.94,-4.60
2,14960,5,-204.22,-990.6,-1.95,24.41,-2.44,-2.44,20.58,38.66,4.59
3,14972,0,0.0,,,,,,,,
4,14973,0,0.0,,,,,,,,
5,14980,0,0.0,,,,,,,,
6,14981,0,0.0,,,,,,,,
0,14985,4,259.52,-566.65,767.21,20.75,15.26,20.75,4.38,26.05,-14.76
1,14996,5,-118.16,-991.94,144.29,92.16,12.82,-2.44,30.74,41.59,-5.43
2,15008,5,-206.79,-990.97,-3.78,26.25,-3.66,-3.66,20.64,38.85,5.09
3,15021,0,0.0,,,,,,,,
4,15022,0,0.0,,,,,,,,
5,15024,0,0.0,,,,,,,,
6,15026,0,0.0,,,,,,,,
0,15029,4,252.32,-568.48,767.82,17.09,17.09,21.97,4.52,25.99,-15.10
1,15041,4,-118.04,-993.41,142.21,93.38,12.82,-3.66,31.51,41.46,-4.97
2,15056,6,-202.88,-991.7,-3.3,25.63,3.05,-3.66,21.03,38.92,4.47
3,15068,1,0.0,,,,,,,,
4,15070,0,0.0,,,,,,,,
5,15072,0,0.0,,,,,,,,
6,15073,1,0.0,,,,,,,,
0,15077,3,253.78,-563.72,769.53,20.75,15.87,21.97,4.52,25.99,-15.10
1,15088,4,-118.04,-993.29,143.68,91.55,12.21,-5.49,31.43,41.30,-5.52
2,15099,5,-206.54,-989.14,-3.17,26.25,-1.22,-3.05,21.03,38.92,4.47
3,15111,0,0.0,,,,,,,,
4,15112,0,0.0,,,,,,,,
5,15114,0,0.0,,,,,,,,
6,15116,0,0.0,,,,,,,,
0,15119,4,257.45,-564.09,766.11,20.14,15.87,21.36,4.39,25.59,-14.99
1,15134,5,-118.04,-991.33,143.92,93.38,12.82,-3.05,30.66,41.09,-5.47
2,15147,5,-206.42,-988.53,-3.42,27.47,-1.83,-3.66,20.53,38.83,4.66
3,15159,0,0.0,,,,,,,,
4,15160,0,0.0,,,,,,,,
5,15162,0,0.0,,,,,,,,
6,15163,1,0.0,,,,,,,,
0,15167,4,255.13,-562.74,768.19,20.14,15.26,20.14,4.96,26.05,-13.68
1,15179,4,-116.82,-992.68,144.78,92.77,12.82,0.0,31.25,41.13,-5.85
2,15191,5,-203.86,-992.8,-5.25,26.86,5.49,-3.05,21.39,39.17,3.87
3,15206,0,0.0,,,,,,,,
4,15208,0,0.0,,,,,,,,
5,15210,0,0.0,,,,,,,,
6,15211,0,0.0,,,,,,,,
0,15215,4,254.52,-563.84,767.58,18.92,15.87,22.58,4.3,25.90,-14.31
1,15226,6,-117.19,-992.31,143.31,93.38,11.6,-4.27,30.9,41.36,-5.05
2,15239,5,-204.22,-989.75,-3.54,27.47,0.0,-5.49,20.48,38.77,4.15
3,15250,1,0.0,,,,,,,,
4,15252,0,0.0,,,,,,,,
5,15254,0,0.0,,,,,,,,
6,15255,0,0.0,,,,,,,,
0,15259,4,256.35,-562.01,768.92,17.7,14.65,21.97,4.97,25.94,-15.05
1,15275,5,-117.43,-992.31,143.07,90.94,11.6,-2.44,30.93,41.41,-5.22
2,15287,4,-207.15,-990.11,-3.78,25.63,-0.61,-4.27,20.76,38.50,5.36
3,15298,1,0.0,,,,,,,,
4,15300,0,0.0,,,,,,,,
5,15302,0,0.0,,,,,,,,
6,15303,1,0.0,,,,,,,,
0,15307,4,258.54,-561.65,767.7,19.53,16.48,21.36,4.43,25.78,-13.96
1,15320,4,-119.14,-991.58,143.55,92.77,11.6,-3.66,31.16,41.63,-5.13
2,15331,5,-206.54,-992.55,-6.84,25.02,-1.83,-3.05,20.92,38.34,3.33
3,15343,0,0.0,,,,,,,,
4,15344,0,0.0,,,,,,,,
5,15350,0,0.0,,,,,,,,
6,15351,1,0.0,,,,,,,,
0,15355,5,255.13,-562.01,768.19,21.36,15.87,21.97,4.41,25.84,-14.36
1,15368,4,-118.29,-990.97,143.8,89.11,10.99,-2.44,30.62,41.37,-4.76
2,15379,5,-204.22,-989.99,-2.08,26.25,0.0,-2.44,20.74,38.67,4.21
3,15391,0,0.0,,,,,,,,
4,15392,0,0.0,,,,,,,,
5,15394,0,0.0,,,,,,,,
6,15396,0,0.0,,,,,,,,
0,15399,5,257.57,-561.89,770.14,21.36,17.09,21.97,4.61,25.67,-14.72
1,15412,3,-120.61,-991.58,144.17,91.55,10.99,-4.27,30.62,41.37,-4.76
2,15426,5,-207.15,-991.82,-5.25,26.25,0.61,0.0,20.8,38.93,4.28
3,15438,0,0.0,,,,,,,,
4,15439,0,0.0,,,,,,,,
5,15441,0,0.0,,,,,,,,
6,15443,0,0.0,,,,,,,,
0,15447,4,256.84,-560.18,767.21,21.36,12.82,20.14,4.79,26.14,-14.01
1,15459,4,-118.29,-991.58,144.29,90.94,11.6,-1.83,30.42,41.75,-3.34
2,15470,5,-206.79,-989.87,-4.27,23.19,6.1,3.05,20.98,38.28,4.59
3,15482,0,0.0,,,,,,,,
4,15483,0,0.0,,,,,,,,
5,15485,0,0.0,,,,,,,,
6,15488,0,0.0,,,,,,,,
0,15491,4,256.1,-561.16,767.21,21.36,15.26,18.92,4.76,25.70,-14.32
1,15507,4,-118.29,-992.07,142.7,88.5,13.43,-1.22,31.34,41.50,-4.36
2,15518,5,-205.08,-990.72,-4.52,23.8,1.83,0.61,21.36,38.24,4.82
3,15531,0,0.0,,,,,,,,
4,15532,0,0.0,,,,,,,,
5,15534,0,0.0,,,,,,,,
6,15536,0,0.0,,,,,,,,
0,15539,4,257.45,-562.5,768.43,21.97,12.21,18.92,5.1,25.95,-15.59
1,15551,4,-118.77,-991.58,142.94,89.11,13.43,-3.05,30.79,41.31,-5.09
2,15563,4,-208.13,-989.26,-4.76,23.8,-1.22,3.66,21.08,38.50,4.33
3,15579,0,0.0,,,,,,,,
4,15580,0,0.0,,,,,,,,
5,15582,0,0.0,,,,,,,,
6,15584,0,0.0,,,,,,,,
0,15587,4,256.84,-564.33,766.6,23.19,12.21,19.53,5.52,25.81,-14.50
1,15599,4,-118.65,-991.94,143.19,90.33,13.43,-1.22,31.03,40.84,-4.98
2,15610,6,-203.61,-991.09,-4.39,21.97,-2.44,3.66,21.23,38.39,4.66
3,15623,0,0.0,,,,,,,,
4,15624,1,0.0,,,,,,,,
5,15626,0,0.0,,,,,,,,
6,15628,0,0.0,,,,,,,,
0,15631,5,255.0,-561.16,769.53,25.02,14.04,20.14,5.51,26.26,-14.05
1,15647,4,-118.04,-991.7,142.82,87.89,12.82,-3.05,31.73,41.22,-4.61
2,15659,5,-205.08,-988.77,-1.83,21.97,1.22,1.83,20.79,38.66,4.36
3,15671,0,0.0,,,,,,,,
4,15672,0,0.0,,,,,,,,
5,15674,0,0.0,,,,,,,,
6,15676,0,0.0,,,,,,,,
0,15679,4,257.2,-532.1,768.19,22.58,15.87,20.75,5.04,25.90,-13.32
1,15691,4,-119.63,-993.29,142.58,90.94,12.21,-3.66,31.14,41.17,-4.92
2,15704,3,-206.05,-991.7,-3.17,22.58,3.05,3.05,20.79,38.66,4.36
3,15714,0,0.0,,,,,,,,
4,15715,1,0.0,,,,,,,,
5,15721,0,0.0,,,,,,,,
6,15722,1,0.0,,,,,,,,
0,15726,4,257.32,-562.26,767.94,22.58,14.65,20.14,5.09,25.93,-13.79
1,15738,4,-119.63,-992.92,144.17,91.55,10.99,-3.05,31.35,41.08,-5.41
2,15750,5,-204.35,-990.11,-0.73,20.75,5.49,1.83,21.46,39.06,4.15
3,15762,0,0.0,,,,,,,,
4,15763,0,0.0,,,,,,,,
5,15765,0,0.0,,,,,,,,
6,15767,0,0.0,,,,,,,,
0,15770,4,259.03,-563.23,768.07,23.8,14.04,18.31,4.98,26.25,-14.45
1,15782,5,-119.26,-992.07,143.31,90.33,14.04,0.0,31.64,41.38,-4.52
2,15798,4,-205.32,-990.72,-2.08,23.19,3.66,4.27,21.17,38.26,4.80
3,15809,0,0.0,,,,,,,,
4,15811,0,0.0,,,,,,,,
5,15813,0,0.0,,,,,,,,
6,15814,0,0.0,,,,,,,,
0,15818,4,256.71,-562.99,767.94,23.8,13.43,17.7,5.08,26.17,-12.95
1,15830,5,-118.41,-991.94,143.8,91.55,12.82,-2.44,31.54,41.59,-4.83
2,15842,5,-201.29,-989.75,-1.83,19.53,-0.61,4.27,21.64,38.22,3.69
3,15853,1,0.0,,,,,,,,
4,15855,0,0.0,,,,,,,,
5,15857,0,0.0,,,,,,,,
6,15858,1,0.0,,,,,,,,
0,15862,3,257.45,-562.74,768.19,20.75,11.6,18.31,5.08,26.17,-12.95
1,15877,5,-118.9,-991.33,144.17,88.5,10.99,-1.22,31.1,41.39,-5.57
2,15889,4,-203.25,-990.6,0.49,21.97,0.0,3.66,21.14,38.11,4.54
3,15900,0,0.0,,,,,,,,
4,15902,0,0.0,,,,,,,,
5,15904,0,0.0,,,,,,,,
6,15905,0,0.0,,,,,,,,
0,15909,4,255.62,-562.5,768.55,22.58,14.04,19.53,4.59,25.90,-13.72
1,15921,4,-118.9,-990.84,144.17,91.55,12.21,-4.27,31.1,41.39,-5.57
2,15932,5,-200.81,-989.14,-0.12,23.8,1.22,3.05,21.15,38.61,4.69
3,15947,0,0.0,,,,,,,,
4,15949,0,0.0,,,,,,,,
5,15950,1,0.0,,,,,,,,
6,15952,0,0.0,,,,,,,,
0,15956,5,256.84,-559.94,766.85,21.36,14.65,17.09,4.3,25.83,-13.98
1,15968,5,-120.24,-993.65,142.7,89.72,11.6,-3.05,31.19,41.37,-5.80
2,15980,4,-200.68,-991.09,1.34,21.36,4.27,2.44,21.25,39.00,4.42
3,15991,0,0.0,,,,,,,,
4,15993,0,0.0,,,,,,,,
5,15995,0,0.0,,,,,,,,
6,15996,0,0.0,,,,,,,,
0,16001,4,258.3,-563.23,767.58,22.58,15.26,21.36,4.37,26.07,-14.59
1,16012,5,-120.24,-989.62,144.9,90.33,12.82,-3.05,31.34,41.37,-4.74
2,16028,4,-202.64,-989.75,0.24,21.97,5.49,3.05,21.74,38.78,4.71
3,16039,0,0.0,,,,,,,,
4,16041,0,0.0,,,,,,,,
5,16043,0,0.0,,,,,,,,
6,16045,0,0.0,,,,,,,,
0,16048,5,256.96,-564.58,769.65,23.8,14.04,18.92,4.46,26.06,-13.48
1,16060,5,-117.68,-991.33,145.75,90.33,14.65,0.0,31.35,41.48,-4.53
2,16072,4,-197.02,-991.94,0.12,20.75,5.49,3.66,21.42,38.49,4.44
3,16083,0,0.0,,,,,,,,
4,16086,0,0.0,,,,,,,,
5,16091,0,0.0,,,,,,,,
6,16093,0,0.0,,,,,,,,
0,16096,5,256.23,-564.82,769.29,23.19,17.09,21.97,3.91,25.99,-14.54
1,16108,4,-122.07,-992.8,143.31,90.33,13.43,-3.66,31.12,41.14,-5.11
2,16120,4,-203.49,-990.72,0.0,20.75,1.83,3.05,21.31,38.22,4.64
3,16132,0,0.0,,,,,,,,
4,16134,0,0.0,,,,,,,,
5,16135,0,0.0,,,,,,,,
6,16137,0,0.0,,,,,,,,
0,16140,5,257.57,-562.87,767.33,21.97,15.87,17.09,4.27,25.52,-14.18
1,16152,4,-119.02,-994.14,144.04,90.33,12.82,0.0,31.05,41.60,-4.53
2,16167,6,-198.73,-994.87,0.24,20.14,9.16,4.27,20.97,38.73,3.67
3,16180,0,0.0,,,,,,,,
4,16181,0,0.0,,,,,,,,
5,16183,0,0.0,,,,,,,,
6,16185,0,0.0,,,,,,,,
0,16188,4,253.91,-562.87,768.92,26.25,13.43,18.31,3.94,25.62,-14.43
1,16200,4,-119.02,-989.5,144.04,90.33,14.04,-4.27,31.19,41.58,-4.72
2,16212,4,-198.97,-989.26,2.93,22.58,7.93,3.66,20.97,38.73,3.67
3,16223,0,0.0,,,,,,,,
4,16224,0,0.0,,,,,,,,
5,16226,0,0.0,,,,,,,,
6,16228,0,0.0,,,,,,,,
0,16231,4,258.54,-561.77,766.24,25.63,14.65,18.92,4.46,25.72,-14.12
1,16247,4,-118.9,-993.29,144.04,91.55,14.04,-1.83,30.77,41.60,-5.36
2,16259,5,-195.8,-990.6,3.91,21.97,7.93,1.83,20.68,38.40,2.84
3,16271,0,0.0,,,,,,,,
4,16272,0,0.0,,,,,,,,
5,16274,0,0.0,,,,,,,,
6,16276,0,0.0,,,,,,,,
0,16279,4,254.52,-565.19,765.75,23.8,14.65,18.92,5.26,25.85,-14.71
1,16291,4,-118.16,-989.99,145.14,89.11,12.82,-3.05,31.82,41.41,-6.18
2,16303,5,-198.73,-992.8,2.69,23.8,6.71,-2.44,20.62,38.29,4.19
3,16318,0,0.0,,,,,,,,
4,16320,0,0.0,,,,,,,,
5,16322,0,0.0,,,,,,,,
6,16323,0,0.0,,,,,,,,
0,16327,4,257.93,-565.43,766.48,25.02,16.48,20.14,4.93,26.23,-14.56
1,16338,6,-120.36,-995.61,142.7,89.11,14.04,-0.61,30.64,41.49,-4.79
2,16351,5,-203.25,-992.8,0.98,20.14,2.44,0.61,21.0,38.53,4.33
3,16362,0,0.0,,,,,,,,
4,16364,0,0.0,,,,,,,,
5,16366,0,0.0,,,,,,,,
6,16367,0,0.0,,,,,,,,
0,16371,4,253.91,-564.94,769.65,28.69,16.48,17.7,4.52,25.99,-14.76
1,16382,6,-119.63,-990.72,145.39,89.11,13.43,-3.66,31.68,41.31,-5.31
2,16399,4,-200.2,-990.36,3.54,25.02,6.1,-1.22,20.84,38.21,4.81
3,16410,0,0.0,,,,,,,,
4,16412,0,0.0,,,,,,,,
5,16413,1,0.0,,,,,,,,
6,16415,0,0.0,,,,,,,,
0,16418,5,261.72,-562.01,762.94,26.86,17.7,18.92,4.48,26.37,-15.42
1,16431,4,-120.61,-993.65,143.19,90.33,14.65,0.0,31.68,41.31,-5.31
2,16442,4,-194.82,-993.16,1.83,21.97,3.66,-1.22,20.78,38.99,3.67
3,16453,0,0.0,,,,,,,,
4,16455,0,0.0,,,,,,,,
5,16456,1,0.0,,,,,,,,
6,16462,0,0.0,,,,,,,,
0,16465,6,259.64,-564.7,767.82,28.69,17.7,21.36,4.59,25.49,-13.38
1,16478,4,-119.14,-991.58,146.12,88.5,14.65,-0.61,31.15,41.56,-4.83
2,16490,4,-197.14,-992.43,3.78,23.19,2.44,-1.22,20.57,38.62,3.36
3,16501,0,0.0,,,,,,,,
4,16503,0,0.0,,,,,,,,
5,16504,0,0.0,,,,,,,,
6,16506,0,0.0,,,,,,,,
0,16509,6,253.66,-564.58,767.94,31.74,17.7,20.14,4.91,26.72,-13.82
1,16522,4,-118.65,-993.16,144.53,86.67,12.82,-5.49,30.79,41.17,-4.85
2,16534,4,-205.81,-992.8,7.57,21.36,-1.22,-3.05,20.13,38.99,3.31
3,16549,0,0.0,,,,,,,,
4,16551,0,0.0,,,,,,,,
5,16552,0,0.0,,,,,,,,
6,16555,0,0.0,,,,,,,,
0,16558,5,256.71,-564.09,766.85,33.57,20.75,18.31,4.88,26.09,-13.29
1,16570,4,-118.9,-989.87,146.12,86.06,16.48,-3.05,30.71,41.22,-5.68
2,16582,4,-195.68,-992.19,1.59,23.19,8.54,-2.44,20.15,38.56,3.74
3,16593,0,0.0,,,,,,,,
4,16595,0,0.0,,,,,,,,
5,16596,2,0.0,,,,,,,,
6,16599,0,0.0,,,,,,,,
0,16618,4,259.4,-567.87,763.43,33.57,17.7,15.87,5.27,26.38,-15.34
1,16634,6,-116.33,-989.01,146.48,87.28,13.43,3.05,31.1,41.91,-3.74
2,16647,5,-197.02,-990.72,10.01,25.02,23.19,-3.05,19.93,38.92,4.83
3,16659,0,0.0,,,,,,,,
4,16660,0,0.0,,,,,,,,
5,16662,0,0.0,,,,,,,,
6,16663,1,0.0,,,,,,,,
0,16667,4,259.16,-568.85,762.82,26.86,18.92,18.92,5.04,26.05,-14.34
1,16679,4,-119.63,-989.01,147.09,90.94,13.43,-154.42,31.1,41.91,-3.74
2,16690,5,-196.17,-990.23,2.08,26.25,6.71,-5.49,20.52,39.22,4.38
3,16705,1,0.0,,,,,,,,
4,16707,0,0.0,,,,,,,,
5,16709,0,0.0,,,,,,,,
6,16710,0,0.0,,,,,,,,
0,16714,4,257.69,-569.95,764.77,27.47,16.48,18.92,4.86,26.35,-13.43
1,16727,4,-118.16,-990.23,147.46,84.23,12.82,-1.83,31.07,42.35,-5.11
2,16738,5,-201.29,-991.82,2.32,25.02,10.38,-1.22,20.86,38.38,4.14
3,16750,0,0.0,,,,,,,,
4,16751,0,0.0,,,,,,,,
5,16753,0,0.0,,,,,,,,
6,16755,0,0.0,,,,,,,,
0,16758,4,256.71,-570.68,762.57,28.69,15.87,15.26,4.91,26.45,-13.27
1,16771,4,-119.26,-989.99,146.97,86.06,14.65,-0.61,30.63,41.69,-3.77
2,16786,5,-196.04,-990.48,5.98,26.25,7.32,1.22,20.8,38.16,3.88
3,16797,1,0.0,,,,,,,,
4,16799,0,0.0,,,,,,,,
5,16801,0,0.0,,,,,,,,
6,16802,0,0.0,,,,,,,,
0,16806,5,259.89,-572.02,761.35,26.25,15.87,18.31,5.11,26.40,-14.09
1,16819,4,-123.66,-992.68,144.65,92.16,13.43,-2.44,31.4,41.41,-4.80
2,16830,5,-199.95,-989.38,6.84,24.41,1.83,3.66,20.98,38.06,4.30
3,16841,1,0.0,,,,,,,,
4,16843,0,0.0,,,,,,,,
5,16845,0,0.0,,,,,,,,
6,16850,0,0.0,,,,,,,,
0,16855,4,260.5,-572.75,760.74,20.75,12.21,17.09,4.82,26.11,-14.90
1,16866,5,-117.68,-990.36,146.97,90.33,12.21,4.88,30.91,41.04,-6.01
2,16878,4,-198.97,-993.16,5.62,28.69,6.71,3.66,20.64,38.23,4.57
3,16889,0,0.0,,,,,,,,
4,16891,0,0.0,,,,,,,,
5,16893,0,0.0,,,,,,,,
6,16894,0,0.0,,,,,,,,
0,16899,3,255.86,-571.78,763.55,18.92,12.82,17.09,4.82,26.11,-14.90
1,16909,5,-117.43,-989.14,148.19,90.94,13.43,2.44,31.34,41.03,-5.07
2,16921,3,-195.68,-988.28,4.64,31.13,-1.22,3.66,20.64,38.23,4.57
3,16944,0,0.0,,,,,,,,
4,16945,0,0.0,,,,,,,,
5,16947,0,0.0,,,,,,,,
6,16949,0,0.0,,,,,,,,
0,16952,4,256.96,-570.8,763.43,17.7,11.6,15.87,4.85,26.01,-13.67
1,16964,4,-117.07,-991.58,146.61,90.94,11.6,0.0,31.05,41.32,-4.80
2,16976,4,-199.71,-990.48,3.66,29.3,7.32,7.32,21.58,38.65,3.45
3,16988,0,0.0,,,,,,,,
4,16989,1,0.0,,,,,,,,
5,16991,0,0.0,,,,,,,,
6,16993,0,0.0,,,,,,,,
0,16996,3,259.89,-570.07,762.7,17.09,13.43,18.31,4.85,26.01,-13.67
1,17010,5,-119.87,-990.36,145.87,89.72,14.04,0.61,31.38,41.27,-5.76
2,17022,5,-196.53,-991.09,5.74,28.69,5.49,8.54,21.58,38.65,3.45
3,17033,0,0.0,,,,,,,,
4,17035,0,0.0,,,,,,,,
5,17037,0,0.0,,,,,,,,
6,17038,0,0.0,,,,,,,,
0,17042,4,254.15,-570.92,763.67,14.04,10.38,17.7,4.64,25.82,-13.81
1,17053,5,-117.55,-989.14,146.0,92.16,11.6,0.61,30.87,41.46,-5.77
2,17065,6,-191.89,-989.87,6.35,33.57,8.54,9.16,21.44,38.24,4.90
3,17077,1,0.0,,,,,,,,
4,17083,0,0.0,,,,,,,,
5,17084,1,0.0,,,,,,,,
6,17086,0,0.0,,,,,,,,
0,17089,5,257.2,-567.5,763.92,10.99,13.43,19.53,4.24,26.38,-14.64
1,17101,5,-119.87,-993.16,144.78,94.6,10.38,1.83,30.76,41.69,-5.52
2,17114,4,-198.24,-992.07,1.83,31.13,5.49,11.6,21.56,38.38,3.77
3,17125,0,0.0,,,,,,,,
4,17127,0,0.0,,,,,,,,
5,17129,0,0.0,,,,,,,,
6,17130,0,0.0,,,,,,,,
0,17134,4,260.38,-568.6,758.91,6.1,7.93,18.92,4.59,26.20,-14.84
1,17145,5,-118.16,-987.67,145.75,95.21,8.54,4.27,31.37,40.91,-4.64
2,17162,4,-191.41,-990.11,11.72,42.11,-3.66,1.22,21.24,38.66,3.50
3,17173,0,0.0,,,,,,,,
4,17175,0,0.0,,,,,,,,
5,17176,0,0.0,,,,,,,,
6,17178,0,0.0,,,,,,,,
0,17181,5,255.74,-564.58,771.0,6.1,5.49,18.31,4.31,26.15,-14.01
1,17193,5,-114.62,-996.22,144.78,105.59,7.93,7.93,31.35,41.16,-4.44
2,17206,4,-192.63,-1000.24,-10.25,52.49,-14.04,10.38,21.81,38.11,4.14
3,17217,0,0.0,,,,,,,,
4,17219,0,0.0,,,,,,,,
5,17221,0,0.0,,,,,,,,
6,17222,0,0.0,,,,,,,,
0,17229,5,251.71,-559.94,768.68,14.04,7.93,19.53,4.24,25.85,-13.81
1,17242,3,-117.07,-992.92,142.82,93.99,10.38,1.22,31.35,41.16,-4.44
2,17253,4,-199.22,-990.36,-4.76,33.57,-26.86,14.04,22.0,38.12,4.35
3,17264,0,0.0,,,,,,,,
4,17266,0,0.0,,,,,,,,
5,17267,1,0.0,,,,,,,,
6,17269,0,0.0,,,,,,,,
0,17272,5,256.96,-563.96,768.31,14.65,10.38,17.09,3.6,26.20,-14.07
1,17285,5,-119.38,-991.82,143.07,95.83,12.82,-1.83,31.19,40.70,-4.79
2,17297,4,-193.24,-989.26,3.3,37.84,1.83,19.53,21.44,37.94,4.71
3,17312,0,0.0,,,,,,,,
4,17314,0,0.0,,,,,,,,
5,17315,0,0.0,,,,,,,,
6,17317,0,0.0,,,,,,,,
0,17320,6,249.63,-561.4,769.17,14.65,10.38,16.48,3.89,25.57,-14.05
1,17333,4,-114.62,-995.24,142.21,95.21,11.6,3.05,31.37,41.14,-4.09
2,17345,4,-178.83,-997.31,-3.3,48.83,6.1,14.65,21.63,37.55,4.49
3,17356,0,0.0,,,,,,,,
4,17358,0,0.0,,,,,,,,
5,17359,1,0.0,,,,,,,,
6,17361,0,0.0,,,,,,,,
0,17364,6,250.73,-563.35,769.78,16.48,17.7,23.19,4.2,26.00,-13.99
1,17381,4,-115.72,-993.65,141.24,95.83,9.77,-6.71,31.24,41.25,-4.08
2,17393,4,-190.55,-994.51,-13.67,47.61,7.93,14.04,21.04,38.49,5.09
3,17404,0,0.0,,,,,,,,
4,17406,0,0.0,,,,,,,,
5,17408,1,0.0,,,,,,,,
6,17410,0,0.0,,,,,,,,
0,17413,5,257.2,-562.26,769.9,21.36,19.53,23.8,4.48,25.82,-13.89
1,17425,5,-118.04,-993.65,141.72,92.77,10.99,-3.66,30.99,41.02,-3.81
2,17437,4,-186.65,-995.73,-12.33,36.01,9.77,17.09,21.84,38.31,4.99
3,17448,0,0.0,,,,,,,,
4,17455,0,0.0,,,,,,,,
5,17456,1,0.0,,,,,,,,
6,17458,0,0.0,,,,,,,,
0,17461,5,254.03,-561.04,765.26,21.97,13.43,16.48,4.75,26.21,-14.21
1,17473,5,-114.75,-990.36,142.7,89.72,15.26,-1.83,30.7,41.10,-5.19
2,17485,4,-178.1,-993.9,-9.03,30.52,14.04,14.65,21.68,37.81,4.80
3,17497,0,0.0,,,,,,,,
4,17499,0,0.0,,,,,,,,
5,17501,0,0.0,,,,,,,,
6,17502,0,0.0,,,,,,,,
0,17506,4,254.88,-563.11,765.99,21.36,14.04,18.92,4.05,26.10,-14.48
1,17517,5,-117.43,-990.11,141.97,92.16,12.82,-1.83,31.26,41.31,-4.41
2,17533,5,-180.66,-992.68,-5.25,28.69,4.88,7.93,21.67,38.02,5.08
3,17545,0,0.0,,,,,,,,
4,17547,0,0.0,,,,,,,,
5,17548,1,0.0,,,,,,,,
6,17550,0,0.0,,,,,,,,
0,17553,5,248.54,-563.6,771.73,18.92,14.65,18.31,4.16,25.87,-14.17
1,17565,5,-114.5,-992.07,142.09,93.38,12.82,-2.44,31.23,41.02,-3.87
2,17577,4,-174.56,-995.73,-9.52,36.01,3.66,1.22,21.67,38.02,5.08
3,17588,0,0.0,,,,,,,,
4,17590,0,0.0,,,,,,,,
5,17592,0,0.0,,,,,,,,
6,17593,0,0.0,,,,,,,,
0,17601,5,256.84,-566.16,771.48,19.53,20.75,23.8,4.57,25.98,-15.09
1,17613,4,-118.53,-989.99,141.36,93.38,11.6,-6.1,30.42,41.08,-3.58
2,17626,4,-183.72,-993.04,-15.01,35.4,-7.32,-3.05,21.9,38.10,4.60
3,17637,0,0.0,,,,,,,,
4,17639,0,0.0,,,,,,,,
5,17641,0,0.0,,,,,,,,
6,17642,0,0.0,,,,,,,,
0,17646,4,255.37,-562.5,767.21,17.7,18.31,20.14,4.37,25.66,-14.42
1,17657,5,-116.46,-991.46,141.48,90.33,12.82,-1.22,30.71,41.96,-5.35
2,17670,4,-177.98,-991.21,-11.84,36.01,8.54,-4.27,21.44,37.77,5.54
3,17685,0,0.0,,,,,,,,
4,17687,0,0.0,,,,,,,,
5,17689,0,0.0,,,,,,,,
6,17690,0,0.0,,,,,,,,
0,17694,4,256.47,-563.11,769.04,15.26,14.04,19.53,4.33,26.54,-14.31
1,17705,6,-117.55,-993.41,141.11,91.55,12.21,-1.83,30.8,41.32,-4.68
2,17718,4,-179.2,-998.41,-17.7,36.01,1.83,-4.88,21.46,38.28,4.75
3,17729,1,0.0,,,,,,,,
4,17731,0,0.0,,,,,,,,
5,17733,0,0.0,,,,,,,,
6,17734,0,0.0,,,,,,,,
0,17738,4,253.91,-563.11,769.29,17.7,20.14,23.8,4.48,25.59,-14.49
1,17754,5,-116.58,-992.07,142.46,92.77,10.38,-4.27,30.59,41.93,-4.93
2,17766,4,-178.59,-995.0,-19.78,28.69,10.99,-7.32,21.46,37.85,5.82
3,17777,1,0.0,,,,,,,,
4,17779,0,0.0,,,,,,,,
5,17781,0,0.0,,,,,,,,
6,17782,0,0.0,,,,,,,,
0,17786,3,254.15,-560.79,770.63,18.31,15.26,20.75,4.48,25.59,-14.49
1,17797,4,-115.84,-991.09,142.46,90.33,12.21,-3.05,30.59,41.93,-4.93
2,17808,5,-185.3,-993.65,-14.16,28.08,1.83,-7.32,21.11,37.76,4.75
3,17820,0,0.0,,,,,,,,
4,17825,0,0.0,,,,,,,,
5,17827,0,0.0,,,,,,,,
6,17828,0,0.0,,,,,,,,
0,17832,5,259.16,-561.4,769.41,15.87,16.48,20.75,5.0,25.96,-13.77
1,17844,5,-117.55,-991.94,140.87,92.77,12.82,-5.49,30.97,41.36,-5.76
2,17856,5,-180.18,-992.92,-16.85,28.69,-9.77,-12.21,21.61,37.99,4.64
3,17868,0,0.0,,,,,,,,
4,17869,0,0.0,,,,,,,,
5,17871,0,0.0,,,,,,,,
6,17873,0,0.0,,,,,,,,
0,17876,5,253.66,-557.98,770.75,17.09,15.26,23.8,5.35,25.77,-15.03
1,17889,4,-115.23,-992.55,142.09,92.16,10.38,-4.88,31.21,41.00,-3.96
2,17904,5,-182.5,-995.61,-16.36,29.91,3.05,-10.38,21.06,37.93,5.04
3,17916,0,0.0,,,,,,,,
4,17917,0,0.0,,,,,,,,
5,17920,0,0.0,,,,,,,,
6,17922,0,0.0,,,,,,,,
0,17925,4,257.2,-561.04,767.33,16.48,18.31,25.02,4.83,25.17,-13.42
1,17937,4,-119.14,-991.09,140.5,91.55,11.6,-5.49,30.77,41.47,-4.39
2,17948,5,-186.65,-993.29,-16.6,29.3,-11.6,-10.99,21.24,37.85,3.93
3,17960,0,0.0,,,,,,,,
4,17963,0,0.0,,,,,,,,
5,17964,0,0.0,,,,,,,,
6,17966,0,0.0,,,,,,,,
0,17973,4,250.37,-558.96,771.73,17.7,17.7,24.41,5.4,25.99,-14.29
1,17985,4,-117.68,-993.29,140.38,93.99,9.16,-8.54,30.86,41.43,-4.44
2,17996,5,-181.03,-993.65,-19.65,32.96,-11.6,-14.65,21.04,37.84,4.88
3,18009,0,0.0,,,,,,,,
4,18011,0,0.0,,,,,,,,
5,18012,0,0.0,,,,,,,,
6,18014,0,0.0,,,,,,,,
0,18017,5,261.96,-557.86,767.21,18.31,18.31,25.63,4.87,26.35,-14.53
1,18029,4,-121.09,-990.36,139.77,90.94,10.99,-5.49,31.1,41.32,-4.24
2,18041,4,-198.12,-993.16,-20.51,29.3,-17.7,-12.82,21.3,37.74,4.93
3,18057,0,0.0,,,,,,,,
4,18059,0,0.0,,,,,,,,
5,18060,0,0.0,,,,,,,,
6,18062,0,0.0,,,,,,,,
0,18065,5,258.18,-559.94,772.46,19.53,18.92,22.58,5.42,25.04,-13.68
1,18077,5,-120.12,-993.53,139.28,92.77,11.6,-3.05,31.08,41.49,-4.57
2,18089,5,-191.04,-993.29,-19.41,29.3,-1.22,-4.88,21.44,37.77,4.37
3,18101,0,0.0,,,,,,,,
4,18103,0,0.0,,,,,,,,
5,18105,0,0.0,,,,,,,,
6,18106,0,0.0,,,,,,,,
0,18110,4,256.35,-558.96,771.24,20.75,18.31,21.97,5.42,25.74,-14.05
1,18125,4,-119.38,-991.09,140.14,92.16,12.21,-4.27,30.85,41.31,-4.96
2,18138,4,-183.72,-993.53,-21.12,25.63,10.38,-6.71,21.73,37.83,5.14
3,18149,0,0.0,,,,,,,,
4,18151,0,0.0,,,,,,,,
5,18152,1,0.0,,,,,,,,
6,18154,0,0.0,,,,,,,,
0,18157,5,256.35,-556.88,771.24,20.14,19.53,23.8,4.97,25.49,-13.98
1,18169,5,-119.02,-993.53,140.01,90.33,12.82,-7.32,31.3,41.33,-4.44
2,18182,3,-193.73,-991.58,-18.8,26.25,6.1,-6.71,21.73,37.83,5.14
3,18196,0,0.0,,,,,,,,
4,18198,0,0.0,,,,,,,,
5,18199,0,0.0,,,,,,,,
6,18201,0,0.0,,,,,,,,
0,18204,5,261.35,-558.72,772.09,20.14,18.92,21.97,4.71,25.29,-14.65
1,18216,5,-120.12,-993.65,139.65,90.94,13.43,-1.22,30.87,41.43,-4.68
2,18229,4,-188.23,-995.85,-20.26,24.41,8.54,-4.27,21.09,38.12,4.61
3,18240,0,0.0,,,,,,,,
4,18242,0,0.0,,,,,,,,
5,18243,1,0.0,,,,,,,,
6,18245,0,0.0,,,,,,,,
0,18248,5,258.06,-558.35,770.51,25.02,17.7,20.14,4.85,25.42,-14.04
1,18260,6,-119.38,-992.19,140.38,89.11,13.43,-1.83,31.18,41.32,-3.93
2,18277,4,-185.42,-992.8,-18.8,25.63,10.99,-4.27,21.75,38.71,4.47
3,18288,0,0.0,,,,,,,,
4,18290,0,0.0,,,,,,,,
5,18291,1,0.0,,,,,,,,
6,18293,0,0.0,,,,,,,,
0,18297,4,258.06,-557.25,769.53,20.75,15.26,20.14,4.35,25.48,-13.87
1,18309,5,-118.53,-991.82,140.5,92.77,14.04,-1.83,31.32,41.33,-5.00
2,18321,4,-192.75,-993.65,-18.8,25.02,7.93,-5.49,21.45,38.28,3.97
3,18332,0,0.0,,,,,,,,
4,18334,0,0.0,,,,,,,,
5,18336,0,0.0,,,,,,,,
6,18341,0,0.0,,,,,,,,
0,18344,6,259.4,-558.11,770.26,23.8,14.65,20.75,4.22,25.35,-13.34
1,18357,4,-121.22,-993.16,138.43,88.5,14.65,-1.22,31.32,41.33,-5.00
2,18368,4,-185.67,-991.94,-22.09,23.8,5.49,-7.32,21.62,38.28,4.85
3,18379,0,0.0,,,,,,,,
4,18381,0,0.0,,,,,,,,
5,18383,0,0.0,,,,,,,,
6,18384,0,0.0,,,,,,,,
0,18388,5,258.67,-558.59,771.24,23.19,14.65,18.92,4.71,25.26,-14.70
1,18400,5,-118.41,-993.29,138.55,87.28,13.43,-3.66,31.32,40.70,-4.82
2,18416,4,-190.55,-994.63,-22.83,18.31,4.27,-6.1,21.79,38.54,4.57
3,18427,0,0.0,,,,,,,,
4,18429,0,0.0,,,,,,,,
5,18432,0,0.0,,,,,,,,
6,18433,0,0.0,,,,,,,,
0,18437,4,258.18,-557.5,769.78,23.19,14.65,18.31,4.49,25.26,-14.48
1,18448,5,-120.85,-990.48,139.53,87.28,16.48,-5.49,31.08,41.59,-4.32
2,18460,5,-188.84,-993.9,-17.46,15.26,-4.88,-9.16,21.23,38.07,4.43
3,18472,0,0.0,,,,,,,,
4,18473,0,0.0,,,,,,,,
5,18476,0,0.0,,,,,,,,
6,18477,1,0.0,,,,,,,,
0,18481,4,259.77,-557.74,768.19,27.47,18.31,21.97,4.44,25.42,-14.42
1,18496,5,-119.26,-992.8,140.38,85.45,13.43,-5.49,31.19,41.04,-4.21
2,18508,5,-188.48,-993.9,-18.07,16.48,14.04,-12.82,21.26,37.44,4.54
3,18521,0,0.0,,,,,,,,
4,18522,0,0.0,,,,,,,,
5,18524,0,0.0,,,,,,,,
6,18526,0,0.0,,,,,,,,
0,18529,4,259.64,-558.35,769.78,26.25,19.53,21.36,4.42,25.54,-14.60
1,18541,4,-120.24,-993.41,140.14,87.89,10.99,-6.1,31.71,40.88,-4.57
2,18552,5,-195.43,-990.11,-13.18,14.04,-0.61,-12.82,21.53,38.43,4.85
3,18569,0,0.0,,,,,,,,
4,18570,0,0.0,,,,,,,,
5,18572,0,0.0,,,,,,,,
6,18574,0,0.0,,,,,,,,
0,18577,4,264.77,-562.62,768.8,28.08,22.58,23.8,4.35,25.66,-13.94
1,18589,4,-122.19,-993.16,141.11,89.11,12.21,-5.49,31.19,40.86,-5.10
2,18601,5,-195.31,-993.53,-14.04,15.87,9.77,-12.82,21.7,38.07,4.00
3,18613,0,0.0,,,,,,,,
4,18615,0,0.0,,,,,,,,
5,18616,0,0.0,,,,,,,,
6,18618,0,0.0,,,,,,,,
0,18621,4,261.6,-558.23,768.19,27.47,17.09,20.75,4.35,25.66,-13.94
1,18632,4,-121.46,-992.68,141.24,87.28,15.26,-3.05,30.91,41.52,-4.68
2,18649,4,-193.73,-993.65,-14.28,7.93,5.49,-9.16,21.83,38.24,5.02
3,18660,0,0.0,,,,,,,,
4,18662,0,0.0,,,,,,,,
5,18663,0,0.0,,,,,,,,
6,18665,0,0.0,,,,,,,,
0,18668,5,259.28,-562.13,769.17,26.25,16.48,21.36,4.31,26.22,-14.53
1,18680,4,-121.46,-992.92,141.24,85.45,12.82,-4.27,30.92,41.60,-4.44
2,18693,3,-192.75,-992.19,-11.6,10.38,3.66,-7.32,21.83,38.24,5.02
3,18703,0,0.0,,,,,,,,
4,18705,0,0.0,,,,,,,,
5,18710,0,0.0,,,,,,,,
6,18712,0,0.0,,,,,,,,
0,18715,5,262.21,-562.01,767.09,25.02,18.31,22.58,4.41,25.89,-13.07
1,18727,5,-121.22,-991.46,142.46,84.23,10.38,-6.1,30.96,41.26,-3.33
2,18740,4,-197.39,-993.16,-9.52,9.16,-3.05,-9.77,21.19,38.35,4.42
3,18751,0,0.0,,,,,,,,
4,18753,0,0.0,,,,,,,,
5,18754,0,0.0,,,,,,,,
6,18756,0,0.0,,,,,,,,
0,18759,5,263.18,-559.08,768.92,29.3,17.7,22.58,4.63,26.34,-14.21
1,18771,6,-121.83,-989.38,142.46,83.62,12.21,-7.32,30.8,41.66,-4.92
2,18788,4,-193.85,-990.84,-9.4,10.38,-6.71,-7.32,21.06,39.03,4.21
3,18799,0,0.0,,,,,,,,
4,18801,0,0.0,,,,,,,,
5,18802,0,0.0,,,,,,,,
6,18804,0,0.0,,,,,,,,
0,18807,5,264.89,-559.69,768.19,28.69,14.65,21.36,4.59,26.28,-15.25
1,18820,4,-123.66,-993.16,142.46,85.45,13.43,-4.88,31.09,40.88,-4.87
2,18832,4,-191.89,-989.87,-4.27,8.54,-0.61,-6.1,21.17,38.57,4.75
3,18843,0,0.0,,,,,,,,
4,18845,0,0.0,,,,,,,,
5,18846,1,0.0,,,,,,,,
6,18848,0,0.0,,,,,,,,
0,18851,5,259.52,-562.87,764.16,30.52,15.26,19.53,4.75,25.55,-13.92
1,18868,4,-121.83,-991.94,142.46,88.5,14.04,-3.66,30.88,41.43,-5.14
2,18880,4,-195.92,-992.19,-2.56,10.99,3.66,-7.32,20.89,38.75,5.42
3,18891,0,0.0,,,,,,,,
4,18893,0,0.0,,,,,,,,
5,18894,0,0.0,,,,,,,,
6,18896,0,0.0,,,,,,,,
0,18899,6,262.82,-560.67,766.11,29.3,16.48,19.53,5.16,26.07,-14.50
1,18912,4,-121.7,-989.87,143.68,84.84,13.43,-3.05,30.88,41.43,-5.14
2,18923,4,-193.36,-990.6,-2.44,14.65,-1.22,-10.38,21.23,38.21,3.99
3,18938,0,0.0,,,,,,,,
4,18940,0,0.0,,,,,,,,
5,18941,0,0.0,,,,,,,,
6,18944,0,0.0,,,,,,,,
0,18947,5,262.94,-559.94,765.5,26.86,15.87,23.19,5.19,26.12,-14.56
1,18959,5,-125.37,-998.05,140.01,87.28,10.99,-6.1,30.64,41.36,-5.14
2,18971,4,-198.0,-991.7,0.24,11.6,-0.61,-7.32,20.73,38.31,3.89
3,18982,0,0.0,,,,,,,,
4,18984,0,0.0,,,,,,,,
5,18987,0,0.0,,,,,,,,
6,18988,0,0.0,,,,,,,,
0,18992,4,258.91,-567.63,764.77,29.91,20.75,23.8,4.68,25.70,-13.56
1,19007,5,-125.98,-989.01,143.31,87.28,12.82,-8.54,31.07,42.19,-3.83
2,19019,4,-203.25,-990.23,0.24,18.31,17.7,-8.54,20.34,37.84,4.20
3,19031,0,0.0,,,,,,,,
4,19033,0,0.0,,,,,,,,
5,19034,1,0.0,,,,,,,,
6,19036,0,0.0,,,,,,,,
0,19040,4,265.75,-563.6,764.77,23.8,13.43,18.92,4.46,26.51,-13.38
1,19051,5,-120.97,-991.21,143.8,84.84,12.21,0.0,30.38,41.75,-4.74
2,19063,4,-191.41,-995.48,-2.2,14.04,8.54,-7.32,20.68,38.22,4.14
3,19075,0,0.0,,,,,,,,
4,19077,0,0.0,,,,,,,,
5,19082,0,0.0,,,,,,,,
6,19084,0,0.0,,,,,,,,
0,19087,5,263.06,-562.13,762.33,26.25,17.09,21.36,4.71,26.72,-14.56
1,19099,5,-124.76,-993.29,142.33,89.11,12.21,-4.88,30.86,42.24,-4.63
2,19111,5,-199.22,-988.77,5.49,14.04,11.6,-10.38,20.73,38.23,3.41
3,19123,0,0.0,,,,,,,,
4,19125,0,0.0,,,,,,,,
5,19127,0,0.0,,,,,,,,
6,19128,0,0.0,,,,,,,,
0,19132,4,263.55,-564.94,764.28,26.25,17.09,20.75,4.71,25.93,-13.56
1,19143,5,-124.27,-991.82,144.29,87.89,11.6,-3.66,30.8,41.48,-4.88
2,19160,4,-198.36,-991.7,-0.85,16.48,2.44,-10.99,20.5,38.49,4.31
3,19171,0,0.0,,,,,,,,
4,19173,0,0.0,,,,,,,,
5,19175,0,0.0,,,,,,,,
6,19176,0,0.0,,,,,,,,
0,19180,4,264.89,-566.65,763.92,25.63,19.53,20.75,4.75,26.17,-14.26
1,19191,5,-124.51,-990.6,144.53,87.28,11.6,-6.71,31.01,41.56,-5.02
2,19204,5,-201.29,-990.23,1.46,17.09,-1.22,-9.77,20.68,38.51,4.19
3,19215,1,0.0,,,,,,,,
4,19217,0,0.0,,,,,,,,
5,19219,0,0.0,,,,,,,,
6,19220,0,0.0,,,,,,,,
0,19224,4,264.65,-564.82,763.31,24.41,17.09,21.36,4.5,26.20,-14.07
1,19239,6,-125.24,-992.07,144.41,87.89,11.6,-3.66,30.88,41.28,-5.63
2,19252,4,-204.71,-992.07,2.2,17.09,2.44,-9.16,20.48,38.50,3.69
3,19263,0,0.0,,,,,,,,
4,19265,0,0.0,,,,,,,,
5,19267,0,0.0,,,,,,,,
6,19268,0,0.0,,,,,,,,
0,19272,4,263.18,-564.09,763.18,26.86,17.7,21.36,4.98,25.99,-13.67
1,19283,6,-124.39,-989.99,145.63,89.11,12.21,-4.27,31.43,40.98,-4.87
2,19296,4,-198.24,-988.77,6.47,20.75,6.71,-9.77,20.48,38.50,3.69
3,19310,0,0.0,,,,,,,,
4,19312,0,0.0,,,,,,,,
5,19313,0,0.0,,,,,,,,
6,19315,0,0.0,,,,,,,,
0,19318,5,264.4,-564.09,762.94,26.25,18.92,21.36,5.02,25.83,-14.94
1,19331,5,-124.63,-992.68,145.63,89.11,12.21,-4.27,31.2,41.81,-5.08
2,19343,4,-202.51,-991.82,2.08,17.09,0.61,-8.54,20.52,38.06,3.97
3,19354,0,0.0,,,,,,,,
4,19356,0,0.0,,,,,,,,
5,19357,1,0.0,,,,,,,,
6,19359,0,0.0,,,,,,,,
0,19363,4,264.53,-568.36,762.7,27.47,19.53,23.19,4.5,26.44,-14.22
1,19375,5,-124.39,-991.33,145.63,89.72,11.6,-5.49,30.88,41.83,-4.57
2,19391,4,-205.81,-991.7,0.37,18.92,1.22,-9.16,20.21,38.61,3.48
3,19402,0,0.0,,,,,,,,
4,19404,0,0.0,,,,,,,,
5,19405,0,0.0,,,,,,,,
6,19407,0,0.0,,,,,,,,
0,19410,5,267.7,-571.41,768.07,31.13,17.7,20.14,4.5,26.44,-14.22
1,19422,3,-123.9,-989.26,146.85,87.28,11.6,-4.88,30.88,41.83,-4.57
2,19433,4,-206.67,-988.77,8.3,21.97,5.49,-9.16,20.7,38.50,3.92
3,19444,0,0.0,,,,,,,,
4,19446,0,0.0,,,,,,,,
5,19451,0,0.0,,,,,,,,
6,19453,0,0.0,,,,,,,,
0,19457,4,273.32,-562.87,757.69,26.25,17.7,22.58,4.61,25.49,-13.60
1,19469,4,-127.2,-993.29,143.43,89.72,12.82,-5.49,31.71,41.49,-4.75
2,19481,4,-206.42,-991.09,7.81,18.92,8.54,-7.93,19.92,38.51,4.54
3,19492,0,0.0,,,,,,,,
4,19493,1,0.0,,,,,,,,
5,19495,0,0.0,,,,,,,,
6,19497,0,0.0,,,,,,,,
0,19501,5,266.11,-569.09,763.55,30.52,15.26,18.92,4.65,25.94,-14.54
1,19513,4,-125.37,-991.46,145.87,86.67,14.04,-4.88,30.76,41.81,-5.57
2,19528,5,-204.71,-990.72,4.15,21.97,9.77,-4.27,20.5,38.67,4.55
3,19540,0,0.0,,,,,,,,
4,19542,1,0.0,,,,,,,,
5,19544,0,0.0,,,,,,,,
6,19546,0,0.0,,,,,,,,
0,19549,5,269.9,-565.06,761.72,29.3,14.65,18.92,4.8,25.98,-13.77
1,19561,4,-126.71,-989.14,146.36,84.84,12.82,-2.44,31.49,40.87,-5.29
2,19573,4,-202.27,-988.89,10.99,17.7,-0.61,-3.05,20.47,38.53,4.09
3,19585,0,0.0,,,,,,,,
4,19587,0,0.0,,,,,,,,
5,19588,0,0.0,,,,,,,,
6,19590,0,0.0,,,,,,,,
0,19593,5,266.24,-571.41,762.08,26.86,19.53,20.75,4.38,26.10,-14.64
1,19609,4,-127.56,-993.53,144.9,89.72,12.21,-4.88,30.92,40.92,-4.76
2,19621,4,-206.05,-990.6,7.32,21.36,6.71,-2.44,20.19,38.49,3.36
3,19633,0,0.0,,,,,,,,
4,19635,0,0.0,,,,,,,,
5,19636,0,0.0,,,,,,,,
6,19638,0,0.0,,,,,,,,
0,19641,5,267.94,-568.6,761.35,25.63,15.87,21.36,4.86,26.25,-14.58
1,19653,4,-127.44,-990.6,145.51,88.5,14.04,-2.44,30.79,41.43,-6.25
2,19665,5,-207.89,-989.38,7.81,22.58,8.54,-1.22,20.57,38.79,4.72
3,19681,0,0.0,,,,,,,,
4,19682,1,0.09775199999999999,,,,,,,,
5,19684,0,0.0,,,,,,,,
6,19686,0,0.0,,,,,,,,
0,19689,5,264.77,-567.63,762.57,25.63,14.65,18.92,4.47,26.27,-15.28
1,19701,4,-125.12,-988.77,148.19,87.28,12.82,-3.66,31.47,40.60,-5.08
2,19714,4,-206.05,-990.6,6.47,24.41,8.54,-1.22,20.89,39.09,3.82
3,19725,0,0.0,,,,,,,,
4,19727,0,0.0,,,,,,,,
5,19728,0,0.0,,,,,,,,
6,19730,0,0.0,,,,,,,,
0,19733,5,269.65,-567.14,758.91,27.47,17.7,18.92,4.38,25.96,-14.62
1,19745,4,-126.1,-990.36,146.12,87.28,13.43,-2.44,30.81,40.66,-4.99
2,19762,4,-203.13,-989.62,9.77,21.97,10.38,-0.61,20.67,38.94,3.19
3,19773,0,0.0,,,,,,,,
4,19775,0,0.0,,,,,,,,
5,19776,0,0.0,,,,,,,,
6,19778,0,0.0,,,,,,,,
0,19781,5,264.28,-569.21,759.4,29.3,17.7,21.97,4.63,26.32,-15.09
1,19793,5,-126.22,-990.97,146.73,87.28,12.21,-4.88,30.83,40.92,-5.05
2,19806,3,-200.32,-993.41,9.89,21.97,12.21,-4.27,20.67,38.94,3.19
3,19816,0,0.0,,,,,,,,
4,19818,0,0.0,,,,,,,,
5,19819,1,0.0,,,,,,,,
6,19825,0,0.0,,,,,,,,
0,19828,5,271.48,-574.71,758.3,30.52,21.97,23.19,4.76,26.34,-14.17
1,19841,4,-128.91,-989.26,146.0,88.5,10.99,-7.32,31.03,41.02,-4.32
2,19853,4,-208.62,-985.47,11.35,25.63,4.27,-1.22,20.2,38.55,4.21
3,19864,0,0.0,,,,,,,,
4,19866,0,0.0,,,,,,,,
5,19867,1,0.0,,,,,,,,
6,19869,0,0.0,,,,,,,,
0,19872,5,270.14,-569.58,757.81,23.19,16.48,20.14,4.71,26.37,-14.81
1,19885,5,-125.73,-991.33,147.95,89.72,11.6,0.61,30.59,41.15,-5.00
2,19901,4,-204.22,-990.48,11.23,23.8,8.54,-1.22,20.87,37.79,4.76
3,19912,0,0.0,,,,,,,,
4,19914,0,0.0,,,,,,,,
5,19915,0,0.0,,,,,,,,
6,19917,0,0.0,,,,,,,,
0,19920,6,267.82,-569.34,758.3,25.63,16.48,20.14,4.43,26.62,-14.86
1,19933,4,-128.05,-987.43,147.58,87.89,11.6,-4.27,30.79,41.67,-4.98
2,19945,4,-204.96,-989.99,10.99,26.25,0.0,-1.22,20.58,38.56,3.72
3,19956,0,0.0,,,,,,,,
4,19958,0,0.0,,,,,,,,
5,19959,1,0.0,,,,,,,,
6,19961,0,0.0,,,,,,,,
0,19964,6,268.92,-572.63,758.18,23.19,15.87,20.14,4.99,26.10,-14.43
1,19981,3,-127.81,-990.23,147.34,91.55,10.99,-2.44,30.79,41.67,-4.98
2,19992,4,-205.08,-988.77,9.89,25.02,3.66,-1.22,20.48,38.32,4.20
3,20003,0,0.0,,,,,,,,
4,20005,0,0.0,,,,,,,,
5,20006,0,0.0,,,,,,,,
6,20008,0,0.0,,,,,,,,
0,20012,5,269.78,-570.19,759.28,21.36,14.65,20.14,5.04,26.34,-14.31
1,20024,4,-129.03,-991.58,147.34,90.94,10.38,-4.88,30.41,41.11,-5.38
2,20036,4,-210.69,-988.04,10.99,23.8,-8.54,0.0,20.76,38.75,4.22
3,20051,0,0.0,,,,,,,,
4,20052,2,0.0,,,,,,,,
5,20055,0,0.0,,,,,,,,
6,20057,0,0.0,,,,,,,,
0,20060,4,268.43,-571.04,757.81,18.92,12.21,18.31,5.46,25.90,-14.53
1,20072,4,-127.81,-989.38,147.71,93.38,11.6,0.0,30.66,41.38,-6.03
2,20084,4,-204.83,-990.23,6.96,25.02,0.0,1.83,20.34,38.38,3.74
3,20096,0,0.0,,,,,,,,
4,20097,0,0.0,,,,,,,,
5,20099,0,0.0,,,,,,,,
6,20101,0,0.0,,,,,,,,
0,20104,4,267.58,-571.29,760.74,18.92,12.82,17.09,5.58,26.22,-13.24
1,20116,4,-125.61,-990.23,147.71,90.94,12.21,-0.61,30.81,40.88,-5.19
2,20131,5,-203.98,-990.72,9.03,25.02,-2.44,2.44,19.92,38.64,4.16
3,20144,0,0.0,,,,,,,,
4,20145,0,0.0,,,,,,,,
5,20147,0,0.0,,,,,,,,
6,20149,0,0.0,,,,,,,,
0,20152,4,274.54,-567.99,757.32,19.53,15.87,20.75,5.27,26.32,-13.62
1,20164,4,-130.0,-990.11,147.22,89.11,11.6,-1.83,30.52,41.31,-5.02
2,20175,5,-206.67,-989.38,10.25,21.97,-8.54,4.27,20.21,38.44,3.17
3,20188,0,0.0,,,,,,,,
4,20189,1,0.0,,,,,,,,
5,20191,0,0.0,,,,,,,,
6,20197,0,0.0,,,,,,,,
0,20200,4,265.5,-571.53,758.67,17.09,12.21,18.31,4.58,26.55,-14.61
1,20212,4,-125.85,-989.87,147.09,90.33,10.38,-0.61,30.85,41.17,-5.51
2,20224,5,-200.93,-989.01,11.23,22.58,-5.49,4.88,20.8,38.68,3.93
3,20236,0,0.0,,,,,,,,
4,20237,0,0.0,,,,,,,,
5,20239,0,0.0,,,,,,,,
6,20241,0,0.0,,,,,,,,
0,20244,3,268.92,-567.5,759.64,15.26,12.82,18.92,4.58,26.55,-14.61
1,20255,4,-127.08,-990.23,147.22,90.33,11.6,2.44,30.97,41.11,-5.73
2,20271,5,-201.29,-993.9,9.4,23.8,-4.88,4.88,20.3,38.68,4.47
3,20283,0,0.0,,,,,,,,
4,20284,0,0.0,,,,,,,,
5,20286,0,0.0,,,,,,,,
6,20287,1,0.0,,,,,,,,
0,20291,4,266.24,-571.53,763.55,20.75,14.04,18.92,4.77,26.38,-15.25
1,20303,4,-126.59,-989.14,148.19,91.55,11.6,-3.05,30.68,41.75,-5.27
2,20315,5,-199.58,-989.38,8.79,22.58,-6.1,0.0,20.84,38.59,4.05
3,20327,0,0.0,,,,,,,,
4,20328,0,0.0,,,,,,,,
5,20330,0,0.0,,,,,,,,
6,20332,0,0.0,,,,,,,,
0,20335,4,268.43,-566.77,759.64,21.97,14.65,20.14,5.16,26.28,-14.84
1,20352,4,-127.08,-990.23,147.83,89.11,13.43,-1.22,30.69,41.70,-5.64
2,20363,4,-201.9,-990.36,10.38,24.41,2.44,2.44,20.84,38.59,4.05
3,20374,0,0.0,,,,,,,,
4,20375,0,0.0,,,,,,,,
5,20377,0,0.0,,,,,,,,
6,20378,1,0.0,,,,,,,,
0,20382,4,267.21,-568.97,760.62,20.14,14.65,18.31,5.69,26.43,-14.26
1,20395,4,-125.12,-991.46,147.34,90.94,13.43,-2.44,31.16,41.44,-5.62
2,20406,5,-198.85,-991.82,9.4,22.58,2.44,0.0,20.2,37.93,3.87
3,20421,0,0.0,,,,,,,,
4,20423,0,0.0,,,,,,,,
5,20425,0,0.0,,,,,,,,
6,20426,0,0.0,,,,,,,,
0,20430,4,269.9,-567.87,758.79,23.19,15.87,19.53,4.93,26.01,-14.49
1,20442,5,-127.93,-988.28,147.09,89.11,12.82,0.0,30.92,41.21,-5.25
2,20454,5,-203.13,-991.46,10.5,21.36,2.44,2.44,21.06,38.01,4.31
3,20465,1,0.0,,,,,,,,
4,20467,0,0.0,,,,,,,,
5,20469,0,0.0,,,,,,,,
6,20470,0,0.0,,,,,,,,
0,20474,4,266.6,-567.02,760.13,21.97,14.04,18.92,4.68,26.01,-14.09
1,20486,4,-125.85,-990.23,146.61,89.72,11.6,-3.05,30.92,41.21,-5.25
2,20501,4,-201.78,-991.46,7.81,20.14,0.0,0.0,20.8,38.49,5.19
3,20512,0,0.0,,,,,,,,
4,20514,0,0.0,,,,,,,,
5,20515,0,0.0,,,,,,,,
6,20517,0,0.0,,,,,,,,
0,20520,6,266.97,-570.56,761.84,23.19,14.65,20.14,5.02,26.45,-14.18
1,20533,4,-127.69,-990.11,147.46,90.33,11.6,-4.88,30.65,41.35,-5.32
2,20545,4,-204.22,-991.46,10.99,25.02,-2.44,-0.61,20.48,38.22,4.21
3,20556,0,0.0,,,,,,,,
4,20558,0,0.0,,,,,,,,
5,20560,0,0.0,,,,,,,,
6,20566,0,0.0,,,,,,,,
0,20569,5,268.68,-568.24,760.5,20.14,13.43,19.53,4.44,26.40,-14.27
1,20581,4,-126.1,-990.11,146.85,91.55,12.82,0.0,31.18,40.93,-4.24
2,20593,4,-197.27,-990.84,10.01,22.58,2.44,-2.44,20.58,38.46,5.10
3,20604,0,0.0,,,,,,,,
4,20606,0,0.0,,,,,,,,
5,20608,0,0.0,,,,,,,,
6,20610,0,0.0,,,,,,,,
0,20613,5,268.07,-570.31,762.57,20.75,17.09,21.97,4.69,26.56,-14.28
1,20625,4,-126.34,-989.38,147.22,91.55,12.21,-3.66,30.98,41.71,-4.76
2,20637,4,-203.98,-990.11,9.64,25.02,-3.05,-1.83,20.54,38.54,4.11
3,20653,0,0.0,,,,,,,,
4,20655,0,0.0,,,,,,,,
5,20656,0,0.0,,,,,,,,
6,20658,0,0.0,,,,,,,,
0,20661,5,268.68,-566.77,762.45,18.31,12.82,16.48,4.85,26.46,-13.62
1,20673,4,-125.0,-992.55,147.34,90.94,14.04,4.27,31.04,41.38,-3.65
2,20685,4,-194.21,-995.97,6.35,20.75,1.22,-1.22,20.46,38.84,3.86
3,20697,0,0.0,,,,,,,,
4,20699,0,0.0,,,,,,,,
5,20700,0,0.0,,,,,,,,
6,20702,0,0.0,,,,,,,,
0,20705,5,268.43,-566.16,761.47,21.36,15.87,21.36,3.74,26.15,-14.12
1,20721,4,-123.78,-988.89,148.07,87.89,12.82,0.0,31.73,41.52,-4.83
2,20733,5,-198.61,-989.14,14.16,20.75,2.44,-4.88,20.19,38.55,3.91
3,20745,0,0.0,,,,,,,,
4,20747,0,0.0,,,,,,,,
5,20748,0,0.0,,,,,,,,
6,20750,0,0.0,,,,,,,,
0,20753,5,268.92,-568.36,760.62,23.19,15.87,21.97,4.36,25.93,-14.03
1,20765,4,-126.59,-992.43,145.14,92.16,13.43,-1.22,31.08,41.72,-5.03
2,20777,5,-201.42,-991.33,12.94,22.58,7.93,-3.05,20.43,38.48,4.31
3,20793,0,0.0,,,,,,,,
4,20794,1,0.0,,,,,,,,
5,20796,0,0.0,,,,,,,,
6,20798,0,0.0,,,,,,,,
0,20801,5,268.43,-568.36,761.84,25.02,16.48,20.14,4.54,25.92,-14.61
1,20813,4,-126.95,-990.11,147.09,92.77,12.21,-3.05,31.07,41.86,-4.24
2,20826,4,-196.78,-993.53,8.67,23.19,9.16,-5.49,20.37,38.83,2.82
3,20837,0,0.0,,,,,,,,
4,20839,0,0.0,,,,,,,,
5,20840,0,0.0,,,,,,,,
6,20842,0,0.0,,,,,,,,
0,20845,5,265.14,-567.75,761.23,26.86,17.09,20.14,4.32,25.60,-14.36
1,20857,4,-125.85,-989.5,148.32,88.5,12.82,-6.1,30.97,41.27,-4.42
2,20874,4,-205.08,-988.4,13.92,25.02,2.44,-7.32,20.5,39.15,3.88
3,20885,0,0.0,,,,,,,,
4,20887,0,0.0,,,,,,,,
5,20888,0,0.0,,,,,,,,
6,20890,0,0.0,,,,,,,,
0,20893,5,272.46,-572.75,761.23,26.86,14.04,17.7,4.39,26.82,-14.60
1,20905,5,-128.3,-989.01,147.58,90.94,13.43,0.61,30.8,41.11,-4.19
2,20918,3,-205.08,-990.23,12.21,23.19,-1.83,-5.49,20.5,39.15,3.88
3,20928,0,0.0,,,,,,,,
4,20930,0,0.0,,,,,,,,
5,20931,0,0.0,,,,,,,,
6,20937,0,0.0,,,,,,,,
0,20940,5,264.28,-568.12,760.99,18.31,11.6,17.7,4.24,26.53,-14.09
1,20953,4,-124.27,-995.36,146.24,91.55,13.43,-1.83,30.54,41.25,-4.08
2,20965,4,-195.43,-993.65,14.65,20.75,6.71,-3.66,20.56,38.71,4.87
3,20976,0,0.0,,,,,,,,
4,20978,0,0.0,,,,,,,,
5,20979,0,0.0,,,,,,,,
6,20981,0,0.0,,,,,,,,
0,20984,4,267.09,-570.31,760.74,26.86,19.53,22.58,4.24,26.53,-14.09
1,20996,3,-128.05,-989.87,146.73,89.11,12.82,-5.49,30.54,41.25,-4.08
2,21007,4,-207.03,-988.89,15.26,20.75,-3.66,-8.54,20.5,38.57,4.85
3,21022,0,0.0,,,,,,,,
4,21024,0,0.0,,,,,,,,
5,21025,0,0.0,,,,,,,,
6,21027,0,0.0,,,,,,,,
0,21030,6,270.02,-568.73,759.4,25.02,17.09,21.97,4.38,26.88,-13.65
1,21043,4,-126.59,-991.09,148.19,90.33,12.21,-2.44,30.41,41.58,-4.81
2,21055,4,-201.42,-993.77,16.24,21.97,3.66,-4.88,20.69,38.79,3.34
3,21066,0,0.0,,,,,,,,
4,21068,0,0.0,,,,,,,,
5,21069,0,0.0,,,,,,,,
6,21071,0,0.0,,,,,,,,
0,21074,6,264.53,-567.14,759.28,29.3,16.48,17.7,4.55,26.77,-15.16
1,21091,4,-123.9,-989.38,148.68,86.67,14.04,-4.27,30.68,41.02,-4.21
2,21103,4,-204.96,-987.67,17.21,19.53,-6.1,-6.71,20.47,39.14,4.53
3,21114,0,0.0,,,,,,,,
4,21116,0,0.0,,,,,,,,
5,21117,0,0.0,,,,,,,,
6,21120,0,0.0,,,,,,,,
0,21123,5,272.71,-568.73,757.2,28.69,19.53,20.75,4.76,26.72,-13.92
1,21135,4,-130.74,-989.38,148.56,86.67,13.43,-5.49,30.93,41.47,-4.00
2,21147,4,-200.68,-992.19,11.84,20.75,5.49,-4.88,20.32,38.50,3.09
3,21163,0,0.0,,,,,,,,
4,21164,0,0.0,,,,,,,,
5,21166,0,0.0,,,,,,,,
6,21168,0,0.0,,,,,,,,
0,21171,4,269.17,-569.21,757.45,31.13,18.31,18.92,5.05,26.90,-13.87
1,21183,4,-126.95,-989.38,147.58,86.67,15.26,0.61,30.87,41.63,-4.82
2,21195,4,-199.83,-988.28,17.21,23.8,8.54,-5.49,20.45,39.05,4.22
3,21207,0,0.0,,,,,,,,
4,21208,1,0.0,,,,,,,,
5,21210,0,0.0,,,,,,,,
6,21212,0,0.0,,,,,,,,
0,21215,5,267.21,-571.78,757.93,28.08,18.31,18.92,4.93,26.55,-14.17
1,21227,4,-125.98,-987.18,149.41,84.23,14.04,-4.88,30.7,41.35,-4.15
2,21242,6,-206.42,-992.07,13.92,23.8,0.0,-6.1,20.85,39.45,4.19
3,21255,0,0.0,,,,,,,,
4,21256,0,0.0,,,,,,,,
5,21258,0,0.0,,,,,,,,
6,21260,0,0.0,,,,,,,,
0,21279,4,270.14,-575.93,757.69,29.3,13.43,15.87,5.16,26.40,-13.67
1,21293,5,-128.54,-986.21,149.41,92.16,14.65,1.22,30.41,41.78,-4.30
2,21305,5,-207.52,-986.57,17.94,24.41,1.83,0.0,21.03,38.57,3.87
3,21316,0,0.0,,,,,,,,
4,21318,0,0.09775199999999999,,,,,,,,
5,21320,0,0.0,,,,,,,,
6,21321,1,0.0,,,,,,,,
0,21328,4,271.24,-569.21,755.98,22.58,10.38,12.82,5.63,26.60,-13.32
1,21340,5,-125.85,-992.43,148.8,93.38,14.04,6.71,30.81,41.65,-4.24
2,21352,4,-196.78,-990.6,20.26,24.41,-4.88,-4.88,21.03,38.73,3.80
3,21363,1,0.0,,,,,,,,
4,21365,0,0.0,,,,,,,,
5,21367,0,0.0,,,,,,,,
6,21368,0,0.0,,,,,,,,
0,21372,5,262.33,-575.56,762.45,21.97,15.87,19.53,5.38,26.46,-13.94
1,21384,5,-126.46,-991.09,149.29,94.6,12.21,-0.61,30.82,41.59,-3.94
2,21396,5,-213.87,-991.58,14.16,31.74,2.44,-4.27,20.41,38.56,3.67
3,21411,0,0.0,,,,,,,,
4,21413,0,0.0,,,,,,,,
5,21415,0,0.0,,,,,,,,
6,21416,0,0.0,,,,,,,,
0,21421,4,271.36,-570.07,757.32,26.86,15.26,15.87,5.4,26.37,-14.01
1,21432,5,-124.39,-989.62,149.54,92.16,14.65,1.22,31.02,41.69,-4.38
2,21444,5,-206.54,-992.31,16.36,25.63,11.6,4.27,20.3,38.88,4.13
3,21455,1,0.0,,,,,,,,
4,21457,0,0.09775199999999999,,,,,,,,
5,21459,0,0.0,,,,,,,,
6,21462,0,0.0,,,,,,,,
0,21465,4,270.51,-570.31,755.25,25.63,13.43,12.82,4.66,26.48,-13.77
1,21480,5,-123.05,-989.38,148.68,89.11,16.48,6.1,31.54,41.48,-4.58
2,21492,5,-197.88,-992.68,10.62,24.41,11.6,4.88,21.07,38.82,4.44
3,21504,1,0.0,,,,,,,,
4,21506,0,0.0,,,,,,,,
5,21508,0,0.0,,,,,,,,
6,21509,1,0.0,,,,,,,,
0,21513,4,266.11,-574.95,757.57,26.86,15.87,14.65,4.44,26.56,-13.76
1,21525,4,-122.07,-991.46,146.73,87.28,14.65,-0.61,31.08,41.67,-4.31
2,21536,5,-207.64,-989.75,12.21,17.7,1.22,7.32,20.37,38.87,3.83
3,21549,0,0.0,,,,,,,,
4,21554,0,0.09775199999999999,,,,,,,,
5,21556,0,0.0,,,,,,,,
6,21557,1,0.0,,,,,,,,
0,21561,4,268.55,-574.1,754.88,27.47,9.77,14.65,4.7,26.20,-13.81
1,21573,4,-122.19,-989.62,149.54,85.45,14.65,0.61,31.23,41.92,-4.96
2,21584,6,-193.12,-990.48,21.48,14.65,5.49,7.32,20.85,38.33,3.45
3,21597,0,0.0,,,,,,,,
4,21598,0,0.0,,,,,,,,
5,21600,0,0.0,,,,,,,,
6,21602,0,0.0,,,,,,,,
0,21605,4,264.04,-577.64,754.76,25.63,16.48,18.31,4.7,27.17,-14.23
1,21617,4,-125.0,-988.89,150.27,85.45,12.82,-8.54,31.23,41.77,-4.69
2,21633,5,-205.81,-992.31,18.07,18.31,-9.16,4.27,20.41,38.28,3.52
3,21645,0,0.0,,,,,,,,
4,21646,0,0.0,,,,,,,,
5,21648,0,0.0,,,,,,,,
6,21649,1,0.0,,,,,,,,
0,21653,4,269.41,-577.51,758.54,25.63,14.04,16.48,4.79,26.78,-13.43
1,21665,4,-124.15,-991.09,150.63,89.11,12.82,-3.66,30.66,41.22,-5.31
2,21677,4,-204.22,-989.26,18.92,19.53,-8.54,9.77,20.41,38.28,3.52
3,21688,0,0.0,,,,,,,,
4,21689,0,0.0,,,,,,,,
5,21691,0,0.0,,,,,,,,
6,21693,0,0.0,,,,,,,,
0,21707,5,267.7,-574.34,752.69,25.02,14.04,17.09,4.2,26.67,-13.83
1,21720,5,-128.78,-990.23,150.27,89.11,14.04,-1.83,30.8,41.41,-4.91
2,21732,4,-203.98,-992.43,19.17,17.09,0.61,11.6,20.18,38.77,4.35
3,21743,0,0.0,,,,,,,,
4,21745,0,0.0,,,,,,,,
5,21747,0,0.0,,,,,,,,
6,21748,0,0.0,,,,,,,,
0,21752,4,267.58,-575.68,754.39,25.02,10.38,15.26,4.26,26.78,-13.42
1,21764,5,-126.71,-989.26,150.27,86.06,13.43,1.22,30.87,41.83,-5.77
2,21776,3,-199.95,-989.26,19.65,16.48,1.22,15.87,20.18,38.77,4.35
3,21790,0,0.0,,,,,,,,
4,21792,0,0.0,,,,,,,,
5,21793,1,0.0,,,,,,,,
6,21795,0,0.0,,,,,,,,
0,21799,5,264.04,-577.15,754.03,23.8,8.54,10.38,4.44,26.64,-13.53
1,21811,5,-122.92,-987.06,153.56,90.94,13.43,1.83,31.45,41.10,-4.41
2,21823,4,-204.59,-988.65,21.61,20.75,-7.32,12.82,20.19,39.03,4.60
3,21834,0,0.0,,,,,,,,
4,21836,0,0.0,,,,,,,,
5,21838,0,0.0,,,,,,,,
6,21839,0,0.0,,,,,,,,
0,21843,5,263.06,-577.39,756.1,13.43,5.49,12.82,3.88,26.48,-13.67
1,21859,5,-125.49,-993.77,150.02,95.83,12.82,2.44,30.93,41.32,-5.35
2,21871,4,-196.53,-993.04,20.14,20.14,-6.71,11.6,20.64,37.87,3.61
3,21882,0,0.0,,,,,,,,
4,21884,0,0.0,,,,,,,,
5,21885,1,0.0,,,,,,,,
6,21888,0,0.0,,,,,,,,
0,21892,4,258.06,-576.05,759.89,20.14,11.6,14.65,4.24,27.22,-13.96
1,21903,4,-123.66,-992.07,151.73,90.33,12.82,1.22,30.93,41.32,-5.35
2,21914,4,-192.38,-994.87,20.39,23.8,6.1,12.82,21.13,38.35,4.10
3,21925,0,0.0,,,,,,,,
4,21932,0,0.0,,,,,,,,
5,21933,1,0.0,,,,,,,,
6,21935,0,0.0,,,,,,,,
0,21938,5,263.67,-574.71,755.74,25.02,13.43,14.65,3.69,26.65,-14.15
1,21950,5,-125.12,-989.01,152.34,88.5,14.65,-1.83,31.54,41.13,-4.44
2,21962,4,-200.93,-989.87,21.24,21.36,0.0,15.26,21.55,38.89,4.10
3,21974,0,0.0,,,,,,,,
4,21976,0,0.0,,,,,,,,
5,21978,0,0.0,,,,,,,,
6,21979,0,0.0,,,,,,,,
0,21983,4,263.06,-575.93,757.93,25.02,10.38,11.6,3.65,26.94,-13.04
1,21994,5,-126.59,-991.21,151.86,88.5,12.82,3.05,31.43,41.16,-4.96
2,22010,4,-191.16,-992.92,20.63,21.97,5.49,17.7,20.54,39.03,3.14
3,22022,0,0.0,,,,,,,,
4,22024,0,0.0,,,,,,,,
5,22025,1,0.0,,,,,,,,
6,22027,0,0.0,,,,,,,,
0,22031,4,256.47,-577.64,755.62,25.63,9.77,9.16,3.58,26.83,-14.42
1,22042,5,-120.0,-987.79,152.22,88.5,15.26,6.71,31.08,41.15,-4.83
2,22054,5,-183.84,-992.92,25.88,23.8,20.14,15.26,20.83,38.79,4.22
3,22066,0,0.0,,,,,,,,
4,22068,0,0.0,,,,,,,,
5,22070,0,0.0,,,,,,,,
6,22071,0,0.0,,,,,,,,
0,22078,5,258.06,-576.05,757.2,20.14,12.21,15.87,4.02,26.87,-14.21
1,22090,5,-122.19,-988.04,152.95,90.94,13.43,1.22,31.57,41.08,-4.35
2,22103,4,-186.4,-991.46,25.27,25.63,9.16,10.38,20.86,38.13,4.10
3,22114,0,0.0,,,,,,,,
4,22116,0,0.0,,,,,,,,
5,22118,0,0.0,,,,,,,,
6,22119,0,0.0,,,,,,,,
0,22123,4,258.67,-578.61,757.69,21.36,12.21,14.65,4.14,26.73,-14.34
1,22134,5,-121.83,-989.5,151.86,91.55,12.21,3.05,31.1,41.85,-5.33
2,22147,4,-182.01,-992.68,23.44,27.47,14.65,6.71,20.95,38.61,4.02
3,22162,0,0.0,,,,,,,,
4,22164,0,0.0,,,,,,,,
5,22165,1,0.0,,,,,,,,
6,22167,0,0.0,,,,,,,,
0,22171,4,261.23,-578.49,758.79,23.19,17.09,20.14,4.25,26.84,-14.17
1,22182,6,-124.02,-991.7,149.9,92.77,11.6,-2.44,30.87,41.05,-4.08
2,22195,4,-190.31,-994.38,21.85,26.25,8.54,6.71,20.74,39.01,4.72
3,22206,0,0.0,,,,,,,,
4,22208,0,0.0,,,,,,,,
5,22210,0,0.0,,,,,,,,
6,22211,0,0.0,,,,,,,,
0,22215,3,257.93,-577.51,758.42,21.36,17.09,17.7,4.25,26.84,-14.17
1,22230,5,-121.46,-990.36,151.25,87.89,14.04,-3.05,30.31,41.08,-4.88
2,22242,4,-181.4,-995.48,21.36,26.86,15.26,5.49,21.86,38.56,3.56
3,22253,0,0.0,,,,,,,,
4,22255,0,0.0,,,,,,,,
5,22257,0,0.0,,,,,,,,
6,22258,0,0.0,,,,,,,,
0,22262,4,261.96,-577.27,755.13,23.8,15.87,16.48,4.41,26.46,-14.70
1,22274,5,-122.92,-990.6,151.61,88.5,13.43,0.0,30.41,40.91,-4.06
2,22286,3,-185.67,-993.77,26.25,23.8,4.27,3.05,21.86,38.56,3.56
3,22296,0,0.0,,,,,,,,
4,22302,0,0.0,,,,,,,,
5,22303,0,0.0,,,,,,,,
6,22305,0,0.0,,,,,,,,
0,22308,5,258.54,-578.49,756.71,21.97,16.48,18.92,4.04,26.70,-13.79
1,22321,4,-122.31,-990.72,152.47,90.94,15.26,-3.66,31.12,41.14,-4.36
2,22333,4,-177.0,-996.83,20.51,25.02,6.1,6.1,21.79,38.56,4.11
3,22344,0,0.0,,,,,,,,
4,22346,0,0.0,,,,,,,,
5,22347,0,0.0,,,,,,,,
6,22349,0,0.0,,,,,,,,
0,22352,6,258.18,-576.54,755.25,21.97,15.87,21.36,4.53,26.67,-15.08
1,22365,3,-123.05,-988.53,151.49,87.28,12.21,-7.32,31.12,41.14,-4.36
2,22381,4,-187.87,-990.23,26.12,23.8,7.93,3.66,21.15,38.44,4.35
3,22392,0,0.0,,,,,,,,
4,22394,0,0.0,,,,,,,,
5,22396,0,0.0,,,,,,,,
6,22397,0,0.0,,,,,,,,
0,22402,4,261.84,-576.29,755.62,19.53,15.87,17.7,4.69,26.98,-13.82
1,22413,5,-124.27,-991.21,152.47,90.94,13.43,-0.61,31.09,41.77,-5.19
2,22425,4,-182.37,-994.38,23.19,26.86,8.54,3.66,21.26,38.62,3.74
3,22436,0,0.0,,,,,,,,
4,22438,0,0.0,,,,,,,,
5,22440,0,0.0,,,,,,,,
6,22441,0,0.0,,,,,,,,
0,22446,4,261.23,-576.17,755.86,23.8,12.21,17.09,4.72,26.81,-13.35
1,22461,5,-118.53,-991.21,151.86,88.5,11.6,0.0,31.07,41.17,-5.36
2,22473,4,-173.1,-995.97,24.9,26.25,9.77,1.83,21.72,38.24,4.08
3,22484,0,0.0,,,,,,,,
4,22487,0,0.0,,,,,,,,
5,22488,1,0.0,,,,,,,,
6,22490,0,0.0,,,,,,,,
0,22494,4,257.69,-577.03,756.84,26.86,21.36,23.8,4.74,26.79,-14.69
1,22505,5,-123.54,-989.75,152.59,87.28,13.43,-11.6,31.6,40.82,-5.00
2,22517,4,-186.65,-993.9,23.07,25.02,13.43,-0.61,21.42,38.53,3.75
3,22533,0,0.0,,,,,,,,
4,22535,0,0.0,,,,,,,,
5,22536,1,0.0,,,,,,,,
6,22538,0,0.0,,,,,,,,
0,22542,4,263.06,-578.37,755.25,23.8,18.92,22.58,5.35,26.40,-14.64
1,22553,5,-124.02,-986.82,155.27,88.5,11.6,-4.27,30.9,40.92,-5.00
2,22565,4,-180.05,-991.09,25.51,28.69,12.21,0.61,21.23,38.11,4.36
3,22577,0,0.0,,,,,,,,
4,22579,0,0.0,,,,,,,,
5,22581,0,0.0,,,,,,,,
6,22582,0,0.0,,,,,,,,
0,22586,4,265.14,-581.05,758.3,21.97,15.87,20.14,4.59,26.14,-14.03
1,22601,5,-122.19,-989.5,153.08,90.94,11.6,-1.83,30.29,41.16,-4.75
2,22614,4,-181.15,-996.46,23.93,25.63,-156.25,-2.44,21.22,38.17,3.87
3,22625,0,0.0,,,,,,,,
4,22627,0,0.0,,,,,,,,
5,22629,0,0.0,,,,,,,,
6,22630,0,0.0,,,,,,,,
0,22634,4,260.5,-575.56,753.3,23.19,15.87,20.14,4.39,26.49,-14.88
1,22645,5,-124.76,-987.43,153.56,88.5,12.21,-4.88,30.92,41.44,-3.43
2,22658,5,-181.4,-996.09,23.32,23.19,1.83,-2.44,21.26,37.76,3.80
3,22670,0,0.0,,,,,,,,
4,22675,0,0.0,,,,,,,,
5,22677,0,0.0,,,,,,,,
6,22678,0,0.0,,,,,,,,
0,22682,4,258.79,-578.25,758.18,21.36,15.26,20.14,4.11,26.32,-13.76
1,22693,6,-122.56,-990.84,152.59,87.28,11.6,-6.71,30.73,41.19,-4.39
2,22706,5,-180.3,-992.8,23.32,23.8,0.61,-1.83,21.12,38.99,3.25
3,22717,1,0.0,,,,,,,,
4,22719,0,0.0,,,,,,,,
5,22721,0,0.0,,,,,,,,
6,22722,1,0.0,,,,,,,,
0,22726,4,263.67,-575.68,753.78,24.41,17.7,22.58,4.87,26.21,-14.44
1,22738,5,-125.12,-988.16,154.79,89.11,10.99,-6.1,31.14,40.88,-4.94
2,22754,5,-181.52,-992.8,28.2,23.19,-1.22,-2.44,20.79,38.65,3.16
3,22765,1,0.0,,,,,,,,
4,22767,0,0.0,,,,,,,,
5,22769,0,0.0,,,,,,,,
6,22770,1,0.0,,,,,,,,
0,22774,4,262.94,-578.0,755.25,23.19,15.87,20.14,4.55,26.05,-14.70
1,22787,4,-93.99,-986.69,154.66,87.89,10.38,-1.83,30.98,40.97,-4.77
2,22798,5,-179.81,-991.94,26.37,25.02,9.16,-3.66,21.3,38.50,4.20
3,22810,0,0.0,,,,,,,,
4,22811,0,0.0,,,,,,,,
5,22813,0,0.0,,,,,,,,
6,22815,0,0.0,,,,,,,,
0,22822,5,261.96,-578.61,754.15,20.75,14.04,19.53,4.41,25.60,-13.90
1,22834,5,-123.9,-988.65,153.32,89.72,10.38,2.44,30.9,41.00,-3.99
2,22846,5,-183.47,-997.07,21.24,25.02,4.27,-3.05,21.31,38.44,4.57
3,22857,1,0.0,,,,,,,,
4,22859,0,0.0,,,,,,,,
5,22861,0,0.0,,,,,,,,
6,22862,1,0.0,,,,,,,,
0,22866,5,261.84,-576.29,756.47,20.14,14.65,20.14,4.64,26.46,-14.12
1,22879,4,-123.54,-990.23,152.71,88.5,10.99,-4.88,31.18,41.74,-4.15
2,22890,4,-181.27,-993.04,24.29,23.8,-2.44,-4.88,21.31,38.44,4.57
3,22904,0,0.0,,,,,,,,
4,22906,0,0.0,,,,,,,,
5,22908,0,0.0,,,,,,,,
6,22909,0,0.0,,,,,,,,
0,22914,4,261.72,-577.39,756.1,20.14,16.48,21.36,4.53,26.39,-13.98
1,22925,5,-122.56,-990.48,154.05,89.72,10.38,-5.49,31.2,41.17,-4.61
2,22937,5,-181.52,-994.87,26.12,23.19,1.83,-4.88,21.11,38.72,4.54
3,22948,1,0.0,,,,,,,,
4,22950,0,0.0,,,,,,,,
5,22952,0,0.0,,,,,,,,
6,22953,2,0.0,,,,,,,,
0,22958,3,263.06,-576.42,755.86,21.36,19.53,22.58,4.53,26.39,-13.98
1,22972,4,-126.1,-987.79,153.69,92.16,12.82,-5.49,31.2,41.17,-4.61
2,22983,4,-182.86,-993.53,28.69,25.02,3.66,-4.27,20.98,38.33,3.87
3,22994,0,0.0,,,,,,,,
4,22996,0,0.0,,,,,,,,
5,22999,0,0.0,,,,,,,,
6,23000,0,0.0,,,,,,,,
0,23004,4,261.23,-576.17,753.54,18.92,14.65,21.36,4.1,26.16,-14.17
1,23015,5,-125.0,-989.01,154.05,90.33,11.6,-3.66,31.71,41.00,-4.65
2,23027,4,-186.4,-992.31,22.95,24.41,-1.83,-6.1,21.06,38.43,3.43
3,23038,0,0.0,,,,,,,,
4,23045,0,0.0,,,,,,,,
5,23046,1,0.0,,,,,,,,
6,23048,0,0.0,,,,,,,,
0,23052,4,262.94,-576.29,754.39,23.19,14.65,18.92,4.59,26.43,-14.93
1,23063,5,-124.76,-989.5,154.54,88.5,10.99,0.0,30.92,41.11,-4.92
2,23075,4,-184.69,-994.26,23.93,21.97,3.05,-4.88,20.47,38.87,3.53
3,23087,0,0.0,,,,,,,,
4,23089,0,0.0,,,,,,,,
5,23091,0,0.0,,,,,,,,
6,23092,0,0.0,,,,,,,,
0,23096,4,263.18,-577.39,754.88,23.8,17.7,21.36,4.69,26.20,-13.10
1,23107,5,-125.24,-988.65,153.44,89.72,12.21,-3.05,31.08,41.52,-5.00
2,23123,5,-187.62,-992.92,26.49,23.19,-5.49,-4.88,20.5,39.07,3.83
3,23135,0,0.0,,,,,,,,
4,23137,0,0.0,,,,,,,,
5,23138,1,0.0,,,,,,,,
6,23140,0,0.0,,,,,,,,
0,23144,4,258.91,-574.71,756.71,19.53,15.87,20.75,4.44,25.77,-13.56
1,23155,5,-125.49,-991.46,153.44,89.72,12.82,-3.66,31.01,41.31,-5.20
2,23168,4,-181.88,-994.87,26.37,23.8,7.93,-6.71,20.8,38.85,3.94
3,23179,0,0.0,,,,,,,,
4,23181,0,0.0,,,,,,,,
5,23183,0,0.0,,,,,,,,
6,23184,0,0.0,,,,,,,,
0,23192,4,261.11,-576.9,754.27,21.36,14.65,21.36,4.21,25.74,-14.20
1,23203,5,-125.98,-990.11,154.91,90.94,13.43,-6.1,30.94,41.19,-5.43
2,23216,4,-185.42,-992.92,26.73,22.58,-1.83,-8.54,21.18,38.75,4.27
3,23227,1,0.0,,,,,,,,
4,23229,0,0.0,,,,,,,,
5,23231,0,0.0,,,,,,,,
6,23232,0,0.0,,,,,,,,
0,23236,4,261.6,-575.81,755.0,18.92,15.26,22.58,4.81,26.25,-14.40
1,23247,5,-125.98,-987.55,154.17,90.94,12.21,-4.27,31.26,40.95,-4.59
2,23260,5,-182.37,-993.29,29.05,21.36,4.27,-9.16,20.95,38.04,4.08
3,23275,0,0.0,,,,,,,,
4,23277,0,0.0,,,,,,,,
5,23279,0,0.0,,,,,,,,
6,23280,0,0.0,,,,,,,,
0,23284,4,265.26,-576.78,754.27,23.19,16.48,23.19,4.09,26.26,-14.23
1,23296,5,-126.71,-989.38,154.54,90.94,12.21,-0.61,30.69,41.04,-4.59
2,23308,5,-189.45,-991.94,26.49,24.41,2.44,-8.54,20.75,38.56,3.72
3,23320,0,0.0,,,,,,,,
4,23321,0,0.0,,,,,,,,
5,23323,0,0.0,,,,,,,,
6,23324,1,0.0,,,,,,,,
0,23328,4,261.11,-576.78,754.88,21.97,16.48,22.58,4.54,26.28,-14.47
1,23344,5,-126.83,-989.38,154.42,90.33,11.6,-5.49,30.94,40.97,-5.18
2,23356,5,-183.59,-993.77,25.76,24.41,1.83,-11.6,20.41,38.44,3.58
3,23368,0,0.0,,,,,,,,
4,23369,0,0.0,,,,,,,,
5,23371,0,0.0,,,,,,,,
6,23372,1,0.0,,,,,,,,
0,23376,4,264.16,-575.2,755.0,24.41,17.7,23.8,3.36,25.98,-14.58
1,23389,4,-125.12,-988.77,154.05,88.5,11.6,-3.05,30.65,41.22,-4.43
2,23400,4,-188.6,-993.65,25.15,25.63,4.88,-10.99,20.41,38.44,3.58
3,23411,0,0.0,,,,,,,,
4,23416,0,0.0,,,,,,,,
5,23418,0,0.0,,,,,,,,
6,23419,1,0.0,,,,,,,,
0,23424,4,264.53,-576.54,755.49,21.97,18.31,25.63,4.53,26.68,-14.05
1,23436,4,-125.73,-990.23,153.44,87.89,10.99,-7.93,29.97,41.39,-4.15
2,23447,5,-195.07,-992.68,22.34,23.8,-6.1,-10.38,20.97,38.81,3.91
3,23459,0,0.0,,,,,,,,
4,23460,0,0.0,,,,,,,,
5,23462,0,0.0,,,,,,,,
6,23464,0,0.0,,,,,,,,
0,23468,4,262.7,-576.05,754.88,23.8,18.92,24.41,5.14,26.54,-14.90
1,23480,3,-127.2,-989.87,154.79,90.94,10.99,-8.54,29.97,41.39,-4.15
2,23494,5,-187.62,-995.12,26.73,21.97,15.26,-7.32,21.3,38.29,4.39
3,23506,0,0.0,,,,,,,,
4,23507,0,0.0,,,,,,,,
5,23510,0,0.0,,,,,,,,
6,23511,1,0.0,,,,,,,,
0,23515,4,268.8,-574.83,755.49,25.02,21.97,27.47,5.11,26.12,-14.33
1,23527,4,-131.35,-989.26,153.32,87.28,9.16,-6.1,31.08,41.36,-4.90
2,23538,5,-190.19,-991.09,30.88,23.19,7.32,-9.77,21.02,38.56,4.21
3,23550,0,0.0,,,,,,,,
4,23552,0,0.0,,,,,,,,
5,23554,0,0.0,,,,,,,,
6,23556,0,0.0,,,,,,,,
0,23563,4,270.39,-577.64,754.64,25.63,23.8,27.47,4.61,26.29,-13.66
1,23574,5,-128.3,-988.89,154.79,89.72,9.16,-7.32,30.74,41.66,-4.06
2,23586,5,-189.45,-991.7,22.95,23.19,7.93,-10.38,21.45,38.38,3.92
3,23598,1,0.0,,,,,,,,
4,23600,0,0.0,,,,,,,,
5,23602,0,0.0,,,,,,,,
6,23603,1,0.0,,,,,,,,
0,23607,4,266.24,-576.9,754.52,24.41,18.92,25.02,5.25,26.68,-13.75
1,23619,4,-129.15,-989.26,153.93,87.89,10.99,-6.71,30.65,41.35,-4.69
2,23630,5,-192.14,-994.38,29.17,21.97,3.66,-12.21,21.51,39.10,3.98
3,23646,1,0.0,,,,,,,,
4,23648,0,0.0,,,,,,,,
5,23650,0,0.0,,,,,,,,
6,23651,0,0.0,,,,,,,,
0,23655,4,266.36,-575.56,752.56,20.14,15.87,25.02,5.47,25.90,-13.78
1,23667,4,-129.39,-991.09,154.42,86.06,10.99,-5.49,30.66,40.92,-4.81
2,23678,6,-196.66,-993.41,25.02,20.75,2.44,-9.77,21.15,38.96,3.75
3,23691,0,0.0,,,,,,,,
4,23692,0,0.0,,,,,,,,
5,23694,0,0.0,,,,,,,,
6,23696,0,0.0,,,,,,,,
0,23699,4,252.81,-580.32,758.18,25.63,27.47,34.18,4.96,26.31,-14.50
1,23714,5,-131.84,-992.43,155.88,88.5,9.77,-19.53,30.32,41.46,-5.54
2,23727,5,-196.78,-997.56,32.47,25.63,20.75,-5.49,20.61,38.57,2.69
3,23739,0,0.0,,,,,,,,
4,23740,0,0.0,,,,,,,,
5,23742,0,0.0,,,,,,,,
6,23744,0,0.0,,,,,,,,
0,23747,4,274.54,-576.17,753.91,31.13,38.45,39.67,5.37,26.78,-13.22
1,23759,4,-130.86,-991.09,153.69,87.28,10.38,-18.31,30.24,41.64,-5.33
2,23771,5,-195.68,-994.38,26.98,25.63,35.4,-4.88,21.01,38.87,3.04
3,23783,0,0.0,,,,,,,,
4,23788,0,0.0,,,,,,,,
5,23790,0,0.0,,,,,,,,
6,23792,0,0.0,,,,,,,,
0,23795,3,278.44,-577.76,751.22,31.74,32.96,32.96,5.37,26.78,-13.22
1,23806,5,-130.0,-981.69,156.98,86.06,10.38,-14.04,30.62,41.31,-3.64
2,23818,5,-187.62,-981.57,29.42,25.02,12.21,-6.71,20.76,38.16,3.71
3,23830,0,0.0,,,,,,,,
4,23831,1,0.0,,,,,,,,
5,23833,0,0.0,,,,,,,,
6,23835,0,0.0,,,,,,,,
0,23838,5,275.88,-576.42,750.61,32.96,30.52,28.69,5.57,26.64,-13.34
1,23851,4,-137.57,-984.62,157.35,83.62,14.04,-15.87,30.55,41.27,-5.20
2,23866,5,-191.77,-988.77,32.59,23.8,17.09,-4.27,20.48,38.59,4.59
3,23878,0,0.0,,,,,,,,
4,23879,1,0.09775199999999999,,,,,,,,
5,23881,0,0.0,,,,,,,,
6,23883,0,0.0,,,,,,,,
0,23886,5,272.09,-578.98,750.0,29.3,27.47,27.47,5.73,26.32,-13.76
1,23899,4,-133.91,-988.04,157.1,87.89,10.38,-14.04,30.76,41.54,-3.92
2,23911,4,-197.27,-996.22,31.13,24.41,16.48,-5.49,20.81,38.50,4.14
3,23922,0,0.0,,,,,,,,
4,23924,0,0.09775199999999999,,,,,,,,
5,23926,0,0.0,,,,,,,,
6,23927,0,0.0,,,,,,,,
0,23934,6,282.23,-579.96,748.29,27.47,21.97,23.19,5.24,26.43,-14.55
1,23947,5,-132.93,-988.16,156.98,86.67,12.82,-4.88,30.87,41.17,-5.46
2,23959,4,-195.92,-990.48,32.35,22.58,3.05,-9.16,21.24,38.42,3.94
3,23970,0,0.0,,,,,,,,
4,23972,0,0.09775199999999999,,,,,,,,
5,23974,0,0.0,,,,,,,,
6,23975,0,0.0,,,,,,,,
0,23980,4,281.62,-574.46,746.34,23.8,20.14,23.8,5.44,26.70,-14.27
1,23992,4,-138.06,-988.16,156.86,86.67,12.21,-7.93,31.09,41.74,-4.99
2,24003,4,-189.33,-991.94,29.42,21.36,8.54,-8.54,21.24,38.42,3.94
3,24017,0,0.0,,,,,,,,
4,24019,0,0.09775199999999999,,,,,,,,
5,24022,0,0.0,,,,,,,,
6,24023,1,0.0,,,,,,,,
0,24027,4,277.59,-580.2,750.85,28.69,25.02,26.86,5.07,26.48,-14.48
1,24039,4,-136.23,-988.16,157.47,86.06,10.99,-10.99,30.26,41.74,-5.08
2,24050,5,-197.14,-991.09,29.05,24.41,12.82,-7.93,20.8,38.39,3.94
3,24062,0,0.0,,,,,,,,
4,24064,1,0.09775199999999999,,,,,,,,
5,24066,0,0.0,,,,,,,,
6,24068,0,0.0,,,,,,,,
0,24071,5,287.11,-579.47,746.58,28.08,23.19,25.02,5.74,26.38,-13.53
1,24087,3,-140.26,-985.96,158.33,84.84,14.65,-6.71,30.26,41.74,-5.08
2,24097,5,-196.9,-990.6,32.35,20.75,0.0,-6.71,20.51,38.96,4.22
3,24110,0,0.0,,,,,,,,
4,24111,0,0.09775199999999999,,,,,,,,
5,24113,0,0.0,,,,,,,,
6,24115,0,0.0,,,,,,,,
0,24118,4,281.98,-576.29,745.97,28.08,17.7,21.36,5.3,26.43,-13.87
1,24130,4,-134.77,-992.31,157.35,86.67,14.65,-1.22,30.36,41.53,-5.53
2,24142,4,-191.77,-999.27,28.69,19.53,10.99,-4.88,20.02,39.18,3.82
3,24158,0,0.0,,,,,,,,
4,24159,0,0.09775199999999999,,,,,,,,
5,24161,0,0.0,,,,,,,,
6,24163,0,0.0,,,,,,,,
0,24166,4,278.2,-578.74,748.05,32.96,22.58,20.14,5.27,26.81,-13.78
1,24178,4,-139.4,-1006.96,159.18,81.18,10.99,-12.82,30.64,41.36,-4.69
2,24190,5,-188.35,-990.36,35.77,18.31,4.27,-3.05,20.23,38.79,3.52
3,24202,0,0.0,,,,,,,,
4,24204,0,0.09775199999999999,,,,,,,,
5,24205,0,0.0,,,,,,,,
6,24207,0,0.0,,,,,,,,
0,24210,5,283.08,-582.89,747.07,37.84,28.08,26.25,5.16,26.48,-13.54
1,24222,5,-140.26,-983.28,160.28,80.57,10.38,-14.04,30.31,41.02,-3.86
2,24239,4,-199.95,-990.72,35.03,22.58,4.88,-4.27,20.52,39.15,3.82
3,24250,0,0.0,,,,,,,,
4,24252,0,0.09775199999999999,,,,,,,,
5,24253,1,0.0,,,,,,,,
6,24255,0,0.0,,,,,,,,
0,24258,5,286.99,-585.57,744.02,34.18,25.63,23.8,5.24,27.27,-14.73
1,24270,5,-141.36,-981.32,161.13,81.18,14.65,-8.54,30.58,41.06,-4.88
2,24283,4,-189.58,-985.47,38.82,20.75,9.16,-3.05,20.15,38.96,3.78
3,24294,0,0.0,,,,,,,,
4,24296,0,0.09775199999999999,,,,,,,,
5,24298,0,0.0,,,,,,,,
6,24303,0,0.0,,,,,,,,
0,24307,4,287.72,-584.84,739.5,26.25,20.14,23.19,5.41,26.73,-13.42
1,24318,6,-141.97,-983.64,159.91,87.89,13.43,-3.66,29.96,41.88,-5.76
2,24331,5,-202.15,-988.4,35.52,21.36,1.22,-4.88,20.31,39.17,4.85
3,24342,1,0.0,,,,,,,,
4,24344,0,0.09775199999999999,,,,,,,,
5,24346,0,0.0,,,,,,,,
6,24348,0,0.0,,,,,,,,
0,24351,4,280.03,-584.11,744.75,25.63,17.7,21.36,5.38,26.40,-13.60
1,24364,4,-139.65,-985.11,160.64,87.89,12.82,-3.66,30.77,41.91,-5.29
2,24375,5,-192.14,-989.5,35.64,22.58,4.27,-3.05,20.17,39.75,4.17
3,24391,0,0.0,,,,,,,,
4,24392,0,0.09775199999999999,,,,,,,,
5,24394,0,0.0,,,,,,,,
6,24396,0,0.0,,,,,,,,
0,24399,4,288.7,-583.86,743.53,24.41,17.7,20.75,5.58,26.45,-13.22
1,24412,4,-141.85,-985.23,160.4,89.11,13.43,0.0,30.15,41.60,-4.64
2,24423,5,-198.0,-992.43,36.5,20.14,-0.61,-1.22,20.35,38.88,4.10
3,24435,0,0.0,,,,,,,,
4,24436,1,0.195695,,,,,,,,
5,24438,0,0.0,,,,,,,,
6,24440,0,0.0,,,,,,,,
0,24443,6,284.91,-583.25,743.53,21.97,12.21,18.31,5.25,26.81,-13.29
1,24460,4,-141.24,-987.67,161.13,90.33,11.6,-1.83,30.03,42.20,-4.47
2,24472,4,-191.53,-989.99,35.16,21.36,0.61,0.0,19.89,38.92,4.35
3,24483,0,0.0,,,,,,,,
4,24485,0,0.195695,,,,,,,,
5,24486,0,0.0,,,,,,,,
6,24488,0,0.0,,,,,,,,
0,24492,5,282.96,-584.23,743.77,23.19,13.43,18.92,4.74,27.05,-12.84
1,24504,4,-141.97,-985.11,161.25,89.72,12.21,-3.05,30.74,41.53,-3.76
2,24516,4,-199.22,-989.99,36.5,21.36,-5.49,1.22,20.26,38.92,3.37
3,24531,0,0.0,,,,,,,,
4,24534,0,0.195695,,,,,,,,
5,24535,0,0.0,,,,,,,,
6,24537,0,0.0,,,,,,,,
0,24540,5,286.25,-584.72,743.41,20.75,13.43,20.14,5.3,26.26,-13.09
1,24552,5,-142.94,-988.53,160.89,89.11,12.82,-6.1,30.26,41.91,-5.62
2,24564,3,-197.63,-990.48,38.94,18.92,-6.71,3.05,20.26,38.92,3.37
3,24574,0,0.0,,,,,,,,
4,24577,0,0.09775199999999999,,,,,,,,
5,24579,0,0.0,,,,,,,,
6,24580,0,0.0,,,,,,,,
0,24584,3,287.48,-582.76,739.99,21.36,13.43,19.53,5.3,26.26,-13.09
1,24594,4,-142.21,-984.99,162.11,91.55,13.43,-1.83,30.26,41.91,-5.62
2,24609,4,-192.63,-990.48,39.31,19.53,2.44,4.88,20.54,39.15,5.04
3,24621,0,0.0,,,,,,,,
4,24623,0,0.195695,,,,,,,,
5,24625,0,0.0,,,,,,,,
6,24626,0,0.0,,,,,,,,
0,24630,4,286.5,-584.59,741.09,21.36,12.82,17.09,5.33,27.01,-13.44
1,24641,5,-142.82,-985.35,162.48,90.33,12.21,1.22,30.1,41.67,-4.47
2,24653,5,-199.71,-989.38,36.99,23.8,-8.54,3.66,20.36,38.90,3.63
3,24665,1,0.0,,,,,,,,
4,24667,0,0.09775199999999999,,,,,,,,
5,24669,0,0.0,,,,,,,,
6,24674,0,0.0,,,,,,,,
0,24678,4,283.57,-584.47,744.02,20.14,10.38,15.26,5.58,26.31,-14.20
1,24689,5,-142.21,-989.87,160.03,90.33,11.6,1.83,30.13,41.78,-4.77
2,24701,6,-188.96,-993.77,36.62,25.02,-1.83,4.27,20.72,39.05,3.52
3,24713,1,0.0,,,,,,,,
4,24715,0,0.09775199999999999,,,,,,,,
5,24717,0,0.0,,,,,,,,
6,24719,0,0.0,,,,,,,,
0,24722,4,285.28,-585.08,744.02,23.19,13.43,18.31,6.32,26.42,-13.88
1,24734,4,-140.14,-986.33,161.74,89.72,12.21,-1.22,30.33,41.92,-4.08
2,24745,6,-190.55,-994.26,39.79,22.58,1.83,4.88,20.4,39.05,3.76
3,24761,0,0.0,,,,,,,,
4,24763,0,0.09775199999999999,,,,,,,,
5,24765,0,0.0,,,,,,,,
6,24766,1,0.0,,,,,,,,
0,24770,4,283.69,-582.76,741.33,25.63,16.48,18.31,5.98,27.03,-13.61
1,24782,4,-138.92,-985.47,161.25,89.11,12.21,-1.22,30.29,41.15,-4.48
2,24794,5,-189.33,-992.8,38.09,24.41,-1.22,6.71,20.84,38.98,4.09
3,24806,0,0.0,,,,,,,,
4,24807,1,0.09775199999999999,,,,,,,,
5,24809,0,0.0,,,,,,,,
6,24811,0,0.0,,,,,,,,
0,24814,5,279.91,-583.25,744.63,24.41,14.04,21.36,6.1,26.71,-13.96
1,24830,5,-142.21,-985.96,160.77,88.5,12.82,-6.1,30.49,41.13,-4.24
2,24842,5,-192.63,-989.62,38.57,24.41,-2.44,6.71,21.58,38.85,3.74
3,24854,0,0.0,,,,,,,,
4,24855,1,0.09775199999999999,,,,,,,,
5,24857,0,0.0,,,,,,,,
6,24859,0,0.0,,,,,,,,
0,24862,5,285.28,-585.21,744.75,25.02,14.65,18.92,6.01,27.28,-12.88
1,24875,4,-141.85,-985.72,162.11,88.5,12.21,-3.66,30.18,42.27,-4.61
2,24887,4,-186.89,-992.8,40.41,27.47,-5.49,3.05,20.68,38.75,3.41
3,24898,0,0.0,,,,,,,,
4,24903,1,0.09775199999999999,,,,,,,,
5,24905,0,0.0,,,,,,,,
6,24907,0,0.0,,,,,,,,
0,24910,5,282.47,-583.37,742.43,25.63,15.26,18.92,5.65,26.48,-13.13
1,24923,4,-140.87,-985.72,161.38,89.11,12.21,-1.22,30.41,42.10,-6.10
2,24935,4,-189.09,-993.16,39.31,26.86,-3.66,1.83,20.95,39.16,4.66
3,24946,0,0.0,,,,,,,,
4,24948,0,0.09775199999999999,,,,,,,,
5,24950,0,0.0,,,,,,,,
6,24951,0,0.0,,,,,,,,
0,24955,5,284.42,-583.37,743.29,25.63,18.31,18.92,5.79,26.61,-13.94
1,24967,5,-142.7,-985.72,162.6,86.67,12.82,1.22,30.33,41.66,-5.22
2,24983,4,-189.94,-989.38,41.02,27.47,9.77,6.1,21.17,39.28,4.55
3,24994,0,0.0,,,,,,,,
4,24996,0,0.09775199999999999,,,,,,,,
5,24998,0,0.0,,,,,,,,
6,24999,0,0.0,,,,,,,,
0,25004,4,285.28,-584.11,739.75,22.58,15.26,18.92,5.73,26.89,-13.04
1,25015,5,-141.48,-984.99,162.35,90.33,12.82,2.44,30.33,41.59,-5.21
2,25027,5,-185.18,-991.21,34.91,26.86,3.05,3.05,20.86,38.72,3.76
3,25038,1,0.0,,,,,,,,
4,25040,0,0.09775199999999999,,,,,,,,
5,25042,0,0.0,,,,,,,,
6,25043,1,0.0,,,,,,,,
0,25052,4,281.25,-584.96,743.29,21.97,13.43,16.48,5.41,26.81,-12.92
1,25063,5,-137.45,-987.92,163.09,89.11,11.6,0.61,30.33,41.88,-5.30
2,25075,5,-183.11,-993.29,38.7,26.25,9.16,3.05,21.14,38.78,4.41
3,25086,2,0.0,,,,,,,,
4,25089,0,0.09775199999999999,,,,,,,,
5,25091,0,0.0,,,,,,,,
6,25092,1,0.0,,,,,,,,
0,25096,4,283.69,-586.79,741.09,21.36,16.48,21.36,5.62,27.08,-13.96
1,25108,4,-143.31,-985.35,162.23,92.16,12.82,-4.27,30.71,41.59,-6.51
2,25119,4,-194.82,-990.48,37.35,27.47,0.0,2.44,21.14,38.78,4.41
3,25134,1,0.0,,,,,,,,
4,25136,0,0.09775199999999999,,,,,,,,
5,25138,0,0.0,,,,,,,,
6,25139,1,0.0,,,,,,,,
0,25143,4,282.35,-583.86,743.16,21.97,12.21,16.48,5.31,27.29,-13.45
1,25155,4,-139.89,-987.67,162.23,89.11,14.04,3.05,31.21,41.53,-5.49
2,25166,5,-179.81,-994.26,37.72,26.86,12.21,4.27,21.26,38.45,3.74
3,25179,0,0.0,,,,,,,,
4,25180,1,0.09775199999999999,,,,,,,,
5,25182,0,0.0,,,,,,,,
6,25184,0,0.0,,,,,,,,
0,25187,5,281.86,-584.11,741.46,21.97,14.04,16.48,5.08,26.92,-14.45
1,25203,3,-139.53,-984.38,162.6,91.55,12.82,1.22,31.21,41.53,-5.49
2,25213,6,-186.16,-991.7,38.82,28.69,4.27,-0.61,21.44,38.40,4.93
3,25226,0,0.0,,,,,,,,
4,25227,1,0.09775199999999999,,,,,,,,
5,25229,0,0.0,,,,,,,,
6,25231,0,0.0,,,,,,,,
0,25234,5,283.69,-584.11,742.92,17.09,13.43,19.53,5.38,26.49,-13.94
1,25246,4,-142.58,-989.99,161.25,92.77,10.38,-1.22,30.69,41.48,-5.40
2,25259,4,-186.28,-996.58,33.45,28.08,1.22,0.0,21.22,38.81,3.32
3,25270,0,0.0,,,,,,,,
4,25275,0,0.09775199999999999,,,,,,,,
5,25277,0,0.0,,,,,,,,
6,25279,0,0.0,,,,,,,,
0,25282,4,278.08,-586.3,746.83,22.58,12.82,18.92,5.19,26.83,-13.62
1,25294,4,-140.5,-985.6,161.62,88.5,15.26,-4.88,30.86,41.87,-6.05
2,25307,4,-188.84,-992.07,40.04,28.08,1.83,0.0,21.03,38.64,3.80
3,25318,0,0.0,,,,,,,,
4,25319,1,0.09775199999999999,,,,,,,,
5,25321,0,0.0,,,,,,,,
6,25323,0,0.0,,,,,,,,
0,25326,5,281.74,-584.47,742.43,22.58,17.7,20.14,4.96,26.44,-12.82
1,25338,4,-143.92,-985.47,162.35,88.5,12.21,-4.88,30.9,41.54,-4.75
2,25354,5,-191.04,-992.43,35.16,28.69,10.38,2.44,21.17,38.72,4.97
3,25366,0,0.0,,,,,,,,
4,25367,1,0.09775199999999999,,,,,,,,
5,25369,0,0.0,,,,,,,,
6,25371,0,0.0,,,,,,,,
0,25374,5,280.64,-584.96,741.33,22.58,15.87,19.53,5.14,27.04,-15.36
1,25387,4,-143.43,-985.84,161.87,92.16,14.04,1.22,30.87,41.41,-5.25
2,25399,4,-185.91,-992.07,38.45,31.13,5.49,4.27,21.15,39.10,3.71
3,25410,0,0.0,,,,,,,,
4,25412,0,0.09775199999999999,,,,,,,,
5,25413,1,0.0,,,,,,,,
6,25415,0,0.0,,,,,,,,
0,25422,5,281.01,-582.52,742.43,19.53,13.43,17.7,5.44,27.00,-12.95
1,25435,4,-137.7,-988.89,161.5,89.11,13.43,3.05,30.16,41.05,-4.24
2,25447,4,-183.59,-993.65,38.21,29.3,13.43,5.49,21.37,38.88,3.53
3,25458,0,0.0,,,,,,,,
4,25460,0,0.09775199999999999,,,,,,,,
5,25461,1,0.0,,,,,,,,
6,25463,0,0.0,,,,,,,,
0,25467,3,279.91,-585.33,741.46,20.75,15.87,17.7,5.44,27.00,-12.95
1,25478,5,-139.89,-983.64,162.48,87.89,12.82,-1.22,30.25,41.60,-5.31
2,25490,4,-183.84,-989.75,37.72,30.52,13.43,2.44,21.15,38.78,4.14
3,25505,0,0.0,,,,,,,,
4,25507,0,0.09775199999999999,,,,,,,,
5,25509,0,0.0,,,,,,,,
6,25510,0,0.0,,,,,,,,
0,25515,4,282.47,-587.04,746.58,18.31,14.04,20.75,5.25,26.72,-13.35
1,25526,5,-141.11,-986.69,162.35,92.77,12.21,0.61,30.14,41.93,-4.94
2,25538,5,-180.66,-993.53,33.2,31.74,9.16,0.0,21.29,38.10,3.28
3,25549,0,0.0,,,,,,,,
4,25551,0,0.09775199999999999,,,,,,,,
5,25553,0,0.0,,,,,,,,
6,25554,1,0.0,,,,,,,,
0,25559,4,281.86,-582.15,743.41,19.53,13.43,15.87,5.38,26.81,-14.42
1,25574,5,-139.04,-990.6,160.64,92.16,12.21,0.61,30.11,42.10,-5.02
2,25586,5,-179.93,-1000.37,33.81,29.3,13.43,1.83,20.85,38.66,4.69
3,25598,0,0.0,,,,,,,,
4,25600,0,0.09775199999999999,,,,,,,,
5,25602,0,0.0,,,,,,,,
6,25604,0,0.0,,,,,,,,
0,25607,4,280.27,-584.96,745.97,24.41,21.36,23.8,5.07,26.82,-15.14
1,25619,4,-139.4,-985.47,161.62,87.89,11.6,-8.54,30.03,42.08,-5.29
2,25630,5,-188.35,-989.26,33.33,26.86,14.65,3.66,20.69,38.53,4.87
3,25643,0,0.0,,,,,,,,
4,25648,0,0.09775199999999999,,,,,,,,
5,25650,0,0.0,,,,,,,,
6,25652,0,0.0,,,,,,,,
0,25655,4,287.96,-585.57,742.55,21.36,18.31,20.14,5.02,26.90,-13.00
1,25667,4,-142.46,-985.35,163.21,89.11,12.82,1.83,30.24,41.82,-5.03
2,25679,4,-184.57,-993.77,32.1,27.47,7.32,2.44,20.79,38.71,4.46
3,25691,0,0.0,,,,,,,,
4,25692,1,0.09775199999999999,,,,,,,,
5,25694,0,0.0,,,,,,,,
6,25696,0,0.0,,,,,,,,
0,25699,5,281.37,-580.08,744.63,20.14,13.43,16.48,4.9,26.70,-13.51
1,25711,3,-133.91,-985.72,163.57,91.55,12.21,1.22,30.24,41.82,-5.03
2,25726,4,-175.29,-998.41,32.84,28.08,14.04,1.83,20.79,38.71,4.46
3,25737,0,0.0,,,,,,,,
4,25738,1,0.09775199999999999,,,,,,,,
5,25740,0,0.0,,,,,,,,
6,25742,0,0.0,,,,,,,,
0,25745,5,283.33,-584.59,741.09,24.41,20.14,22.58,5.37,26.39,-14.42
1,25757,4,-139.28,-984.74,163.21,88.5,12.21,-6.1,30.41,42.03,-5.26
2,25769,5,-183.47,-989.87,33.69,26.25,9.16,1.22,20.87,38.31,3.52
3,25781,0,0.0,,,,,,,,
4,25783,0,0.09775199999999999,,,,,,,,
5,25785,0,0.0,,,,,,,,
6,25786,0,0.0,,,,,,,,
0,25790,4,281.01,-584.35,743.53,19.53,15.87,20.75,6.05,26.88,-14.23
1,25805,4,-139.28,-985.6,163.45,87.28,14.04,-3.66,29.98,42.27,-5.26
2,25818,4,-178.83,-995.85,32.84,26.86,15.87,3.05,20.62,38.39,5.14
3,25829,0,0.0,,,,,,,,
4,25831,0,0.09775199999999999,,,,,,,,
5,25833,0,0.0,,,,,,,,
6,25834,0,0.0,,,,,,,,
0,25838,4,288.21,-583.74,739.75,22.58,15.87,18.92,5.7,26.89,-14.87
1,25849,5,-138.79,-984.86,161.99,90.33,10.38,0.61,30.16,42.22,-5.30
2,25862,4,-183.59,-997.07,32.23,26.86,3.05,0.0,20.69,38.65,3.93
3,25877,0,0.0,,,,,,,,
4,25879,0,0.09775199999999999,,,,,,,,
5,25880,1,0.0,,,,,,,,
6,25882,0,0.0,,,,,,,,
0,25885,5,281.86,-585.33,744.63,21.97,17.09,21.36,5.64,27.14,-14.37
1,25897,6,-137.94,-987.3,162.6,90.33,10.99,-4.88,29.97,41.60,-5.73
2,25910,4,-176.88,-989.99,33.2,28.69,10.38,3.05,20.98,38.71,4.17
3,25921,0,0.0,,,,,,,,
4,25923,0,0.09775199999999999,,,,,,,,
5,25925,0,0.0,,,,,,,,
6,25926,0,0.0,,,,,,,,
0,25946,4,282.84,-584.35,744.26,17.7,14.04,18.31,5.26,26.60,-13.31
1,25962,5,-139.65,-985.11,161.62,92.77,11.6,-1.22,29.93,41.70,-5.37
2,25974,5,-176.76,-995.24,32.84,26.25,12.21,0.61,21.09,38.61,4.27
3,25987,0,0.0,,,,,,,,
4,25988,0,0.09775199999999999,,,,,,,,
5,25990,0,0.0,,,,,,,,
6,25992,0,0.0,,,,,,,,
0,25995,4,279.79,-582.89,743.29,19.53,16.48,19.53,5.33,26.99,-14.14
1,26007,4,-138.18,-987.92,162.35,92.16,12.82,-4.27,30.48,42.18,-5.21
2,26019,4,-184.94,-993.16,32.47,27.47,-0.61,0.61,20.29,38.31,4.00
3,26031,0,0.0,,,,,,,,
4,26032,1,0.09775199999999999,,,,,,,,
5,26038,0,0.0,,,,,,,,
6,26040,0,0.0,,,,,,,,
0,26043,4,285.64,-583.13,742.92,19.53,15.87,19.53,5.65,26.72,-13.79
1,26055,4,-137.57,-987.43,162.84,92.16,13.43,-1.22,30.59,42.15,-5.41
2,26067,5,-176.51,-996.46,33.08,29.91,14.04,1.22,21.15,38.56,4.82
3,26079,0,0.0,,,,,,,,
4,26081,0,0.09775199999999999,,,,,,,,
5,26082,0,0.0,,,,,,,,
6,26084,0,0.0,,,,,,,,
0,26087,5,282.96,-583.98,744.38,22.58,18.92,22.58,5.41,26.65,-13.68
1,26099,5,-138.79,-986.33,163.09,91.55,12.82,-4.88,30.08,42.02,-4.80
2,26116,4,-183.35,-991.94,29.91,28.08,3.66,-1.83,20.83,38.71,4.38
3,26127,0,0.0,,,,,,,,
4,26129,0,0.09775199999999999,,,,,,,,
5,26130,1,0.0,,,,,,,,
6,26132,0,0.0,,,,,,,,
0,26135,5,282.84,-584.84,744.63,19.53,15.87,20.14,5.37,27.22,-13.68
1,26147,5,-138.18,-986.21,162.23,91.55,13.43,-3.66,30.14,41.55,-4.98
2,26160,4,-179.32,-997.56,32.47,27.47,11.6,1.83,21.22,38.44,4.24
3,26171,0,0.0,,,,,,,,
4,26173,0,0.09775199999999999,,,,,,,,
5,26175,0,0.0,,,,,,,,
6,26176,0,0.0,,,,,,,,
0,26180,4,282.47,-583.98,745.48,23.19,19.53,23.19,4.98,26.40,-15.05
1,26195,6,-141.72,-987.06,161.01,89.72,13.43,-6.1,30.42,41.44,-4.33
2,26208,4,-179.93,-993.04,35.03,29.3,1.83,-2.44,21.3,38.65,4.20
3,26219,0,0.0,,,,,,,,
4,26221,0,0.09775199999999999,,,,,,,,
5,26223,0,0.0,,,,,,,,
6,26224,0,0.0,,,,,,,,
0,26228,4,285.64,-582.89,742.43,19.53,18.92,22.58,5.47,27.29,-13.00
1,26241,4,-140.01,-985.72,162.11,86.67,10.99,-2.44,30.18,41.86,-5.20
2,26252,5,-177.12,-993.41,30.64,29.3,15.87,-5.49,20.78,38.45,5.21
3,26267,0,0.0,,,,,,,,
4,26269,0,0.09775199999999999,,,,,,,,
5,26271,0,0.0,,,,,,,,
6,26272,1,0.0,,,,,,,,
0,26276,4,283.69,-583.13,744.63,20.14,20.75,21.97,5.36,27.23,-13.76
1,26289,4,-139.4,-988.89,161.25,89.72,13.43,-6.1,30.35,41.49,-4.21
2,26300,5,-173.83,-998.29,34.06,31.13,20.14,-3.66,21.07,38.53,4.69
3,26312,0,0.0,,,,,,,,
4,26313,1,0.09775199999999999,,,,,,,,
5,26315,0,0.0,,,,,,,,
6,26317,0,0.0,,,,,,,,
0,26320,6,287.6,-582.4,742.68,23.8,27.47,26.25,5.16,27.15,-13.55
1,26337,4,-136.84,-985.72,162.48,89.72,12.21,-9.77,30.9,41.54,-4.38
2,26348,5,-179.69,-993.04,31.49,29.91,14.04,-1.83,20.53,38.77,4.86
3,26360,0,0.0,,,,,,,,
4,26361,1,0.09775199999999999,,,,,,,,
5,26363,0,0.0,,,,,,,,
6,26365,0,0.0,,,,,,,,
0,26369,5,294.56,-581.67,735.23,22.58,20.14,21.97,5.21,26.97,-13.48
1,26381,4,-144.41,-981.81,164.43,90.94,12.21,-4.88,30.81,41.37,-4.27
2,26393,4,-182.25,-989.87,29.66,25.63,3.66,-5.49,21.24,38.48,4.04
3,26404,0,0.0,,,,,,,,
4,26411,0,0.09775199999999999,,,,,,,,
5,26412,0,0.0,,,,,,,,
6,26414,0,0.0,,,,,,,,
0,26417,5,285.4,-582.03,743.04,16.48,10.38,15.87,5.3,26.73,-14.33
1,26429,4,-139.89,-988.4,162.11,91.55,12.21,3.05,30.75,41.53,-4.80
2,26441,4,-177.0,-996.46,30.88,27.47,3.05,-3.05,21.18,38.53,4.31
3,26452,0,0.0,,,,,,,,
4,26455,0,0.09775199999999999,,,,,,,,
5,26457,0,0.0,,,,,,,,
6,26458,0,0.0,,,,,,,,
0,26462,4,283.45,-582.76,745.0,20.14,16.48,21.36,5.29,26.48,-13.76
1,26473,5,-139.53,-986.57,164.18,90.33,12.21,-3.05,29.93,41.66,-5.26
2,26498,4,-180.79,-994.14,28.56,29.91,9.77,-4.88,21.0,38.28,4.58
3,26509,0,0.0,,,,,,,,
4,26511,0,0.09775199999999999,,,,,,,,
5,26512,1,0.0,,,,,,,,
6,26514,0,0.0,,,,,,,,
0,26517,5,291.14,-583.01,739.5,25.02,18.92,21.97,5.98,26.35,-13.73
1,26529,5,-142.46,-986.57,162.84,90.94,12.82,-1.83,29.91,42.19,-4.60
2,26542,4,-180.05,-993.41,31.49,28.08,7.32,-4.27,20.79,38.67,4.44
3,26553,0,0.0,,,,,,,,
4,26555,0,0.09775199999999999,,,,,,,,
5,26557,0,0.0,,,,,,,,
6,26558,0,0.0,,,,,,,,
0,26562,4,288.45,-583.13,742.19,19.53,15.26,20.75,5.0,27.14,-13.96
1,26577,6,-141.36,-984.25,162.48,90.94,12.21,-2.44,30.29,42.16,-5.24
2,26590,4,-177.98,-990.72,30.27,27.47,3.05,-3.66,21.07,38.40,5.27
3,26601,0,0.0,,,,,,,,
4,26603,0,0.09775199999999999,,,,,,,,
5,26605,0,0.0,,,,,,,,
6,26606,1,0.0,,,,,,,,
