id,t,dt,ax,ay,az,gx,gy,gz,mx,my,mz
-1,119,119,119.0,119.0,119.0,119.0,20.0,20.0,20.0,-6:48:08,04 12 2021
0,5112,4,138.43,-588.5,781.86,20.14,16.48,24.41,15.31,46.34,-2.09
1,5124,5,-32.47,-992.92,149.66,92.77,10.99,-5.49,17.7,40.80,-25.74
2,5136,4,-122.56,-1000.61,-11.11,31.13,1.83,-7.93,6.25,40.56,-16.70
3,5155,0,0.0,,,,,,,,
4,5156,1,0.0,,,,,,,,
5,5158,0,0.0,,,,,,,,
6,5160,0,0.0,,,,,,,,
0,5164,4,141.85,-587.77,781.25,18.92,17.7,24.41,15.61,46.42,-2.29
1,5176,4,-32.96,-994.87,147.09,90.94,10.99,-4.88,18.35,40.69,-25.90
2,5187,5,-121.95,-1000.24,-12.82,29.91,-2.44,-8.54,6.46,41.20,-15.95
3,5199,0,0.0,,,,,,,,
4,5200,1,0.0,,,,,,,,
5,5202,0,0.0,,,,,,,,
6,5204,0,0.0,,,,,,,,
0,5208,4,142.58,-587.89,781.62,15.87,18.31,25.02,15.71,46.07,-2.04
1,5220,3,-36.87,-995.24,146.73,87.28,10.38,-6.1,18.35,40.69,-25.90
2,5236,4,-127.81,-1000.85,-14.89,32.96,-6.1,-7.93,6.03,41.80,-16.24
3,5248,0,0.0,,,,,,,,
4,5250,0,0.0,,,,,,,,
5,5251,1,0.0,,,,,,,,
6,5253,0,0.0,,,,,,,,
0,5256,5,138.92,-586.18,781.98,18.31,14.65,21.97,15.39,46.15,-3.28
1,5268,4,-31.74,-997.31,147.22,92.77,10.38,-4.27,17.42,40.31,-26.20
2,5280,4,-119.87,-1002.69,-15.87,32.35,9.16,-7.93,6.08,41.53,-15.67
3,5292,0,0.0,,,,,,,,
4,5294,0,0.0,,,,,,,,
5,5295,1,0.0,,,,,,,,
6,5301,0,0.0,,,,,,,,
0,5304,5,142.33,-585.94,782.1,18.31,18.92,24.41,15.23,46.20,-2.67
1,5316,4,-34.18,-994.14,146.61,90.33,11.6,-7.93,17.63,40.45,-26.53
2,5328,4,-126.95,-998.05,-15.5,27.47,-9.16,-5.49,5.97,41.70,-16.55
3,5340,0,0.0,,,,,,,,
4,5342,0,0.0,,,,,,,,
5,5343,0,0.0,,,,,,,,
6,5345,0,0.0,,,,,,,,
0,5348,5,141.97,-584.35,783.08,16.48,17.7,26.25,15.64,46.37,-2.82
1,5360,4,-35.77,-997.92,146.85,93.99,9.77,-9.77,17.75,40.08,-26.49
2,5372,4,-123.9,-1000.98,-14.16,25.02,5.49,-4.88,5.97,41.70,-16.55
3,5387,0,0.0,,,,,,,,
4,5388,0,0.0,,,,,,,,
5,5390,0,0.0,,,,,,,,
6,5392,0,0.0,,,,,,,,
0,5395,4,144.41,-586.91,780.76,18.92,17.7,24.41,15.77,46.18,-3.00
1,5407,4,-35.28,-992.31,147.83,89.11,11.6,-3.66,16.97,40.06,-25.44
2,5419,5,-125.61,-998.66,-14.28,27.47,4.88,-0.61,6.13,41.61,-15.67
3,5431,0,0.0,,,,,,,,
4,5432,0,0.0,,,,,,,,
5,5434,0,0.0,,,,,,,,
6,5436,0,0.0,,,,,,,,
0,5439,4,142.7,-586.67,782.35,15.26,20.14,25.63,15.34,45.72,-2.67
1,5454,5,-33.33,-996.95,147.22,92.77,9.16,-8.54,17.27,40.72,-25.60
2,5467,4,-118.04,-1001.34,-15.87,27.47,0.0,-3.05,6.03,41.30,-15.78
3,5478,1,0.0,,,,,,,,
4,5480,0,0.0,,,,,,,,
5,5482,0,0.0,,,,,,,,
6,5483,0,0.0,,,,,,,,
0,5487,4,145.51,-582.4,782.47,17.09,20.14,26.86,15.7,45.81,-2.29
1,5498,6,-39.06,-995.85,147.58,88.5,10.99,-6.71,17.48,40.19,-24.95
2,5511,4,-131.84,-1000.73,-12.7,26.86,-5.49,2.44,6.12,41.19,-15.64
3,5522,1,0.0,,,,,,,,
4,5528,0,0.0,,,,,,,,
5,5529,1,0.0,,,,,,,,
6,5531,0,0.0,,,,,,,,
0,5534,5,146.24,-585.57,781.98,16.48,17.09,23.8,15.87,46.19,-3.14
1,5547,5,-39.18,-989.75,147.46,93.99,10.99,-3.66,17.15,40.30,-25.57
2,5559,4,-118.53,-996.95,-15.63,31.13,15.26,7.93,5.4,41.30,-14.95
3,5570,0,0.0,,,,,,,,
4,5572,0,0.0,,,,,,,,
5,5573,1,0.0,,,,,,,,
6,5575,0,0.0,,,,,,,,
0,5578,5,142.58,-585.45,783.69,10.99,21.97,26.25,15.92,45.80,-2.61
1,5591,4,-37.11,-992.55,147.46,92.77,9.77,-10.99,17.66,40.52,-26.10
2,5607,4,-134.77,-1000.98,-21.0,38.45,20.14,12.21,5.82,41.43,-14.72
3,5618,0,0.0,,,,,,,,
4,5620,0,0.0,,,,,,,,
5,5621,0,0.0,,,,,,,,
6,5623,0,0.0,,,,,,,,
0,5626,6,146.97,-585.45,782.96,9.16,28.08,29.3,16.13,46.44,-1.90
1,5639,4,-36.38,-989.62,147.95,97.05,10.38,-10.38,17.2,40.30,-24.87
2,5651,4,-122.19,-997.92,-16.97,37.23,64.09,16.48,5.85,40.91,-15.20
3,5662,0,0.0,,,,,,,,
4,5664,0,0.0,,,,,,,,
5,5665,0,0.0,,,,,,,,
6,5667,0,0.0,,,,,,,,
0,5670,6,143.43,-586.55,787.11,1.22,32.96,38.45,16.02,46.07,-2.45
1,5687,4,-39.18,-998.29,145.63,98.88,6.71,-21.97,17.75,40.48,-24.95
2,5698,5,-117.8,-1013.18,-34.42,27.47,19.53,17.7,6.56,41.39,-16.09
3,5710,0,0.0,,,,,,,,
4,5712,0,0.0,,,,,,,,
5,5713,0,0.0,,,,,,,,
6,5715,0,0.0,,,,,,,,
0,5719,4,156.62,-567.26,789.79,12.82,35.4,34.79,15.72,45.87,-2.95
1,5731,4,-42.6,-1008.67,141.72,92.77,6.1,-16.48,17.94,40.81,-26.15
2,5743,4,-137.57,-1015.38,-30.03,-9.77,40.89,48.83,6.48,40.78,-14.86
3,5758,0,0.0,,,,,,,,
4,5760,1,0.0,,,,,,,,
5,5762,0,0.0,,,,,,,,
6,5764,0,0.0,,,,,,,,
0,5767,4,158.81,-577.03,784.3,28.69,28.08,25.63,16.17,46.06,-2.28
1,5779,4,-46.14,-1001.34,144.65,90.94,9.16,-6.71,17.49,40.30,-25.94
2,5790,5,-108.76,-1020.26,-22.09,-22.58,63.48,64.7,6.57,41.54,-15.76
3,5803,0,0.0,,,,,,,,
4,5804,1,0.0,,,,,,,,
5,5806,0,0.0,,,,,,,,
6,5808,0,0.0,,,,,,,,
0,5811,4,167.24,-576.66,783.08,39.67,23.8,18.92,16.58,46.09,-2.62
1,5823,3,-46.88,-994.51,145.75,70.8,14.65,0.61,17.49,40.30,-25.94
2,5837,5,-101.07,-1006.35,-5.98,-50.05,59.2,78.12,6.85,41.81,-16.05
3,5850,0,0.0,,,,,,,,
4,5851,0,0.0,,,,,,,,
5,5853,0,0.0,,,,,,,,
6,5854,1,0.0,,,,,,,,
0,5858,3,151.49,-575.56,793.21,50.05,22.58,17.7,16.58,46.09,-2.62
1,5868,5,-44.43,-1013.92,142.46,76.9,12.82,-4.27,17.03,40.60,-26.83
2,5880,4,-96.92,-1023.68,-9.28,-50.05,78.12,78.74,6.85,41.81,-16.05
3,5892,0,0.0,,,,,,,,
4,5893,0,0.0,,,,,,,,
5,5895,0,0.0,,,,,,,,
6,5900,0,0.0,,,,,,,,
0,5904,4,149.29,-587.65,772.95,70.19,51.88,36.62,16.06,46.25,-2.59
1,5915,5,-36.87,-984.74,149.17,60.42,9.16,-24.41,17.47,40.52,-26.38
2,5927,5,-70.56,-981.69,18.8,-51.88,119.63,67.14,7.07,41.37,-15.33
3,5939,1,0.0,,,,,,,,
4,5941,0,0.0,,,,,,,,
5,5943,0,0.0,,,,,,,,
6,5944,0,0.0,,,,,,,,
0,5948,4,165.89,-587.89,777.22,70.19,71.41,57.98,16.3,46.26,-1.77
1,5959,5,-52.73,-997.68,151.0,65.92,5.49,-37.23,17.6,40.22,-25.99
2,5971,5,-101.32,-1005.25,27.22,-37.23,87.89,56.76,7.73,41.72,-15.23
3,5987,0,0.0,,,,,,,,
4,5989,0,0.0,,,,,,,,
5,5991,0,0.0,,,,,,,,
6,5992,0,0.0,,,,,,,,
0,5996,4,165.41,-592.65,770.26,65.31,62.87,47.0,15.99,46.14,-2.48
1,6007,5,-42.36,-980.35,154.91,70.8,4.88,-23.8,17.41,40.61,-26.12
2,6020,4,-38.09,-991.94,31.01,-13.43,132.45,40.89,7.68,41.47,-16.69
3,6031,0,0.0,,,,,,,,
4,6033,0,0.0,,,,,,,,
5,6035,0,0.0,,,,,,,,
6,6036,0,0.0,,,,,,,,
0,6040,4,170.17,-596.07,762.33,47.0,67.14,62.26,16.28,45.95,-1.65
1,6055,5,-60.67,-987.55,158.08,83.01,1.83,-46.39,16.94,40.66,-26.46
2,6068,4,-93.38,-999.76,33.08,-17.7,35.4,26.86,8.17,41.41,-16.87
3,6079,0,0.0,,,,,,,,
4,6081,0,0.0,,,,,,,,
5,6082,0,0.0,,,,,,,,
6,6084,0,0.0,,,,,,,,
0,6087,5,175.66,-593.02,767.58,40.89,56.15,58.59,17.49,46.50,-1.27
1,6099,5,-52.98,-998.41,151.61,91.55,0.61,-31.74,16.94,40.60,-25.82
2,6112,4,-67.26,-1010.01,18.68,-35.4,125.73,39.67,8.23,41.30,-17.02
3,6127,0,0.0,,,,,,,,
4,6128,0,0.0,,,,,,,,
5,6130,0,0.0,,,,,,,,
6,6132,0,0.0,,,,,,,,
0,6135,4,191.41,-593.51,764.77,39.67,48.83,45.17,17.31,46.67,-0.83
1,6148,4,-61.16,-992.07,155.76,76.29,4.27,-19.53,15.98,40.48,-26.83
2,6159,5,-71.29,-1001.34,30.27,-57.37,81.18,49.44,8.51,41.36,-16.52
3,6171,0,0.0,,,,,,,,
4,6172,1,0.0,,,,,,,,
5,6174,0,0.0,,,,,,,,
6,6176,0,0.0,,,,,,,,
0,6179,4,180.18,-601.68,766.36,40.28,58.59,43.95,17.33,46.70,-1.14
1,6192,4,-64.45,-985.35,158.2,81.18,3.05,-32.96,16.64,40.45,-26.57
2,6207,5,-79.83,-1030.03,40.16,-79.96,74.46,51.88,8.45,41.78,-16.08
3,6219,0,0.0,,,,,,,,
4,6220,0,0.0,,,,,,,,
5,6222,0,0.0,,,,,,,,
6,6223,1,0.0,,,,,,,,
0,6227,5,169.19,-592.65,777.34,54.93,95.83,33.57,17.26,46.36,-1.50
1,6239,5,-54.57,-1018.19,150.76,78.12,4.88,-41.5,16.25,40.38,-26.28
2,6251,5,-53.59,-1031.98,11.72,-157.47,112.92,93.99,8.73,41.09,-17.77
3,6263,0,0.0,,,,,,,,
4,6264,0,0.0,,,,,,,,
5,6266,0,0.0,,,,,,,,
6,6268,0,0.0,,,,,,,,
0,6276,4,194.82,-586.06,779.3,108.03,89.72,50.05,18.24,46.68,-1.39
1,6287,5,-69.46,-1005.13,166.63,48.22,9.16,-54.93,16.08,40.47,-25.82
2,6299,5,-74.58,-1094.36,26.98,-286.87,24.41,139.16,9.2,40.89,-18.40
3,6311,0,0.0,,,,,,,,
4,6312,0,0.0,,,,,,,,
5,6315,0,0.0,,,,,,,,
6,6316,1,0.0,,,,,,,,
0,6320,4,225.71,-560.42,808.11,204.47,119.63,21.36,17.42,47.57,-1.05
1,6332,3,-161.62,-1173.1,141.72,3.66,24.41,-20.14,16.08,40.47,-25.82
2,6342,5,-278.32,-1269.53,-53.96,-481.57,206.91,235.6,10.6,39.03,-19.81
3,6359,0,0.0,,,,,,,,
4,6360,1,0.0,,,,,,,,
5,6362,0,0.0,,,,,,,,
6,6364,0,0.0,,,,,,,,
0,6367,4,333.74,-470.83,934.81,497.44,203.86,-263.06,18.1,47.39,-0.40
1,6379,4,-297.97,-1722.78,128.17,-485.23,166.02,170.9,15.92,40.36,-25.24
2,6391,4,-113.89,-1450.68,-175.54,-789.79,417.48,321.04,12.52,37.45,-22.24
3,6404,0,0.0,,,,,,,,
4,6405,0,0.0,,,,,,,,
5,6407,0,0.0,,,,,,,,
6,6408,0,0.0,,,,,,,,
0,6412,4,201.05,-684.94,1073.49,993.04,645.75,-535.89,17.65,47.68,2.98
1,6427,5,-632.45,-1483.89,23.19,-1062.01,498.66,-474.85,16.74,38.87,-28.75
2,6439,6,-348.14,-1299.07,0.61,-836.18,464.48,262.45,14.7,34.58,-25.15
3,6452,0,0.0,,,,,,,,
4,6454,0,0.0,,,,,,,,
5,6455,0,0.0,,,,,,,,
6,6457,0,0.0,,,,,,,,
0,6460,5,875.85,-522.95,1016.36,662.84,1058.96,-979.61,16.53,48.41,6.62
1,6472,4,-434.69,-180.79,-944.58,-742.8,1032.71,-393.07,17.61,35.16,-30.76
2,6484,4,-295.78,-543.7,-732.3,-505.37,701.9,-121.46,14.7,34.58,-25.15
3,6500,0,0.0,,,,,,,,
4,6501,0,0.0,,,,,,,,
5,6503,0,0.0,,,,,,,,
6,6504,1,0.0,,,,,,,,
0,6508,4,567.63,298.83,1070.43,-344.24,726.93,-808.72,14.22,48.79,5.22
1,6520,4,-150.02,-561.4,-1059.57,462.04,1043.7,-255.74,19.25,33.70,-32.26
2,6533,4,58.23,-486.69,-673.22,344.85,819.09,-437.01,17.42,33.62,-25.76
3,6544,0,0.0,,,,,,,,
4,6546,0,0.0,,,,,,,,
5,6547,1,0.0,,,,,,,,
6,6549,0,0.0,,,,,,,,
0,6552,5,554.69,79.71,1020.87,-721.44,581.67,-189.21,13.34,47.29,4.13
1,6568,5,148.44,-900.02,-715.33,867.92,441.28,-350.95,21.36,35.36,-31.08
2,6581,4,222.29,-799.07,-426.76,1044.31,126.34,-653.69,17.57,34.62,-24.15
3,6593,0,0.0,,,,,,,,
4,6594,0,0.0,,,,,,,,
5,6596,0,0.0,,,,,,,,
6,6598,0,0.0,,,,,,,,
0,6601,4,478.39,-278.93,1061.89,-860.6,435.18,571.9,14.98,46.67,1.71
1,6614,4,170.04,-1139.04,-392.58,1142.58,-212.4,-552.37,20.58,38.75,-27.75
2,6626,4,148.32,-1014.4,-310.3,1475.22,-253.3,-693.97,16.46,37.44,-20.01
3,6641,0,0.0,,,,,,,,
4,6643,0,0.0,,,,,,,,
5,6644,0,0.0,,,,,,,,
6,6646,0,0.0,,,,,,,,
0,6649,5,336.91,-548.46,989.14,-760.5,-242.31,992.43,17.16,45.57,-2.00
1,6662,5,145.14,-1476.56,57.62,1042.48,-548.1,-35.4,18.6,41.72,-24.26
2,6674,5,46.39,-1256.1,-116.46,1713.87,-610.35,-531.01,14.34,39.90,-15.41
3,6686,0,0.0,,,,,,,,
4,6687,1,0.0,,,,,,,,
5,6689,0,0.0,,,,,,,,
6,6691,0,0.0,,,,,,,,
0,6694,3,182.74,-1006.35,911.87,-615.84,-745.85,728.15,17.16,45.57,-2.00
1,6706,4,-178.47,-1308.23,491.33,842.9,-484.62,310.67,18.05,43.02,-21.74
2,6722,4,-138.31,-1392.46,273.93,1611.94,-838.01,-411.99,11.54,42.30,-10.61
3,6733,1,0.0,,,,,,,,
4,6735,0,0.0,,,,,,,,
5,6737,0,0.0,,,,,,,,
6,6738,0,0.0,,,,,,,,
0,6743,4,408.2,-1624.15,433.47,-776.37,-146.48,739.14,17.83,44.43,-3.82
1,6755,4,-173.83,-870.48,1023.93,1063.23,-474.24,-274.05,17.07,44.68,-18.88
2,6767,4,-213.62,-1321.66,627.56,1163.33,-540.16,-405.27,9.23,42.66,-4.00
3,6778,0,0.0,,,,,,,,
4,6785,0,0.0,,,,,,,,
5,6786,0,0.0,,,,,,,,
6,6788,0,0.0,,,,,,,,
0,6791,5,-117.07,-1307.5,-69.46,-705.57,362.55,1171.26,19.19,43.46,-6.37
1,6803,5,226.32,-1303.83,1485.23,805.66,-780.03,-771.48,13.9,45.73,-15.34
2,6815,5,-55.79,-1334.84,615.97,296.02,-264.89,-234.99,7.35,44.17,-1.00
3,6828,0,0.0,,,,,,,,
4,6829,1,0.0,,,,,,,,
5,6831,0,0.0,,,,,,,,
6,6833,0,0.0,,,,,,,,
0,6836,4,-140.26,-1234.25,-243.65,314.33,215.45,437.62,23.4,39.98,-8.31
1,6848,4,-161.25,-1761.47,1618.9,-687.26,-427.86,245.97,12.66,45.28,-16.85
2,6864,4,-65.55,-996.7,86.79,-775.15,-5.49,89.11,6.04,44.64,-2.27
3,6876,0,0.0,,,,,,,,
4,6878,0,0.0,,,,,,,,
5,6879,1,0.0,,,,,,,,
6,6881,0,0.0,,,,,,,,
0,6884,5,1041.99,-324.22,1619.02,912.48,-305.18,-144.65,25.21,39.49,-7.80
1,6896,5,-362.3,-1263.55,-92.77,-1329.96,9.77,690.92,15.71,42.98,-20.83
2,6908,6,-441.65,-1394.53,20.39,-692.14,-307.62,-14.04,6.27,43.79,-4.11
3,6921,0,0.0,,,,,,,,
4,6922,1,0.0,,,,,,,,
5,6928,0,0.0,,,,,,,,
6,6930,0,0.0,,,,,,,,
0,6933,4,282.23,-1201.9,950.56,704.96,-247.8,-496.22,23.63,42.92,-4.58
1,6945,4,151.86,-896.12,206.18,-543.82,166.63,294.8,16.69,41.50,-23.79
2,6958,4,426.27,-1026.37,-121.95,-831.91,520.63,84.84,6.54,43.92,-8.59
3,6969,0,0.0,,,,,,,,
4,6971,0,0.0,,,,,,,,
5,6972,1,0.0,,,,,,,,
6,6974,0,0.0,,,,,,,,
0,6977,5,59.69,-808.59,875.73,454.1,1.22,-84.84,22.97,43.24,-3.43
1,6989,3,-78.37,-906.86,197.63,-194.7,2.44,-200.2,16.69,41.50,-23.79
2,7005,4,-203.37,-994.38,-40.16,-708.01,-141.6,-99.49,5.4,44.08,-10.95
3,7016,0,0.0,,,,,,,,
4,7018,0,0.0,,,,,,,,
5,7020,0,0.0,,,,,,,,
6,7021,0,0.0,,,,,,,,
0,7024,5,338.26,-629.39,776.37,211.18,0.61,18.92,23.8,42.82,-2.49
1,7036,6,-108.4,-1014.89,153.44,-54.93,-19.53,-73.85,15.58,41.24,-25.37
2,7049,5,-338.01,-979.13,-36.38,-545.65,-80.57,-16.48,5.42,42.96,-13.70
3,7061,0,0.0,,,,,,,,
4,7062,0,0.09775199999999999,,,,,,,,
5,7064,0,0.0,,,,,,,,
6,7066,0,0.0,,,,,,,,
0,7069,4,195.19,-591.8,834.72,183.11,103.76,26.25,23.89,42.93,-1.21
1,7086,4,-63.35,-1031.13,153.2,9.16,3.66,-76.9,16.22,41.16,-26.48
2,7097,4,-43.46,-1043.82,-79.1,-444.95,418.09,15.26,5.42,42.96,-13.70
3,7108,0,0.0,,,,,,,,
4,7109,1,0.29383000000000004,,,,,,,,
5,7111,0,0.0,,,,,,,,
6,7113,0,0.0,,,,,,,,
0,7116,5,354.0,-580.08,726.07,228.27,283.2,43.95,24.68,42.79,-0.33
1,7129,4,-161.25,-1025.76,159.42,-53.71,19.53,-169.68,14.76,40.77,-26.43
2,7141,4,-295.29,-972.05,43.7,-454.71,6.71,22.58,5.58,42.86,-16.42
3,7156,0,0.0,,,,,,,,
4,7158,0,0.49067700000000003,,,,,,,,
5,7159,1,0.0,,,,,,,,
6,7161,0,0.0,,,,,,,,
0,7164,6,376.95,-629.03,674.32,220.34,187.38,-28.08,25.34,43.31,0.72
1,7177,5,-197.27,-914.18,187.62,-34.79,122.68,-30.52,15.27,40.60,-27.32
2,7189,5,-119.14,-947.51,111.82,-313.72,191.65,47.61,6.09,42.24,-16.70
3,7201,0,0.0,,,,,,,,
4,7202,0,0.49067700000000003,,,,,,,,
5,7204,0,0.0,,,,,,,,
6,7206,0,0.0,,,,,,,,
0,7209,5,345.95,-620.12,684.94,159.91,65.31,-29.91,24.38,43.58,1.31
1,7225,5,-86.18,-999.76,181.52,15.87,54.32,15.87,14.61,40.47,-27.29
2,7237,5,-66.53,-1011.96,67.14,-263.06,27.47,14.04,6.56,41.16,-18.54
3,7249,0,0.0,,,,,,,,
4,7250,0,0.49067700000000003,,,,,,,,
5,7252,0,0.0,,,,,,,,
6,7255,0,0.0,,,,,,,,
0,7258,4,352.29,-643.92,655.27,157.47,63.48,-35.4,24.3,44.43,1.65
1,7270,4,-164.43,-943.36,203.74,4.27,60.42,-12.82,15.17,40.37,-27.17
2,7281,5,-220.46,-945.56,144.78,-256.35,-126.95,-20.75,7.29,39.79,-19.32
3,7293,0,0.0,,,,,,,,
4,7299,1,0.39215700000000003,,,,,,,,
5,7301,0,0.0,,,,,,,,
6,7303,0,0.0,,,,,,,,
0,7306,4,349.61,-641.72,648.07,83.01,-108.64,-103.76,23.4,44.86,3.61
1,7318,4,-165.16,-946.9,203.98,78.12,75.68,161.13,15.36,40.26,-28.10
2,7330,4,-174.68,-953.25,136.96,-245.97,-97.66,-5.49,7.63,38.71,-20.30
3,7342,0,0.0,,,,,,,,
4,7344,0,0.39215700000000003,,,,,,,,
5,7346,0,0.0,,,,,,,,
6,7347,0,0.0,,,,,,,,
0,7351,4,294.19,-650.15,665.16,43.33,-222.78,-151.37,22.5,45.28,3.44
1,7362,5,-107.42,-970.58,202.64,105.59,76.9,215.45,15.75,39.70,-27.61
2,7378,5,-124.02,-958.5,186.77,-271.61,-252.69,-34.18,6.67,38.53,-21.50
3,7391,0,0.0,,,,,,,,
4,7392,0,0.29383000000000004,,,,,,,,
5,7394,0,0.0,,,,,,,,
6,7396,0,0.0,,,,,,,,
0,7399,4,229.37,-648.44,741.46,6.71,-211.79,-92.16,20.87,46.04,2.53
1,7411,4,-115.6,-1090.82,177.98,116.58,53.71,163.57,16.71,39.99,-28.12
2,7424,4,-136.6,-1074.83,152.59,-292.36,15.87,-7.32,6.63,37.27,-22.81
3,7435,0,0.0,,,,,,,,
4,7437,0,0.29383000000000004,,,,,,,,
5,7438,1,0.0,,,,,,,,
6,7444,0,0.0,,,,,,,,
0,7447,5,217.29,-646.12,715.94,17.7,-118.41,-49.44,18.48,47.17,2.42
1,7459,4,-85.21,-1085.33,189.45,18.92,-3.05,28.69,17.22,39.62,-27.27
2,7472,4,-164.92,-1070.68,119.14,-437.01,-31.74,62.26,7.34,35.73,-23.66
3,7483,0,0.0,,,,,,,,
4,7485,0,0.195695,,,,,,,,
5,7487,0,0.195695,,,,,,,,
6,7488,1,0.0,,,,,,,,
0,7492,4,225.59,-644.29,756.96,88.5,-113.53,-96.44,17.22,48.93,2.22
1,7504,4,-104.61,-1200.2,210.08,-160.52,-19.53,8.54,17.19,39.15,-29.90
2,7517,4,-295.29,-1137.21,211.79,-516.97,14.04,168.46,7.24,34.46,-25.45
3,7532,0,0.0,,,,,,,,
4,7533,1,0.0,,,,,,,,
5,7535,0,0.29383000000000004,,,,,,,,
6,7537,0,0.0,,,,,,,,
0,7540,5,204.35,-627.93,811.65,330.2,9.77,-121.46,16.6,49.83,3.28
1,7553,3,-150.63,-1268.07,237.55,-350.34,-3.05,-13.43,17.19,39.15,-29.90
2,7564,4,-177.49,-1246.34,214.36,-625.0,233.76,253.3,8.5,32.30,-27.80
3,7575,1,0.0,,,,,,,,
4,7577,0,0.0,,,,,,,,
5,7579,0,0.29383000000000004,,,,,,,,
6,7580,1,0.0,,,,,,,,
0,7584,4,263.92,-658.69,833.98,742.19,95.83,-206.91,15.43,50.82,5.25
1,7600,5,-61.04,-1571.66,213.62,-700.68,65.31,37.84,17.46,38.23,-29.00
2,7612,5,-105.83,-1505.62,104.86,-816.04,275.27,310.06,10.93,28.93,-30.05
3,7624,0,0.0,,,,,,,,
4,7625,1,0.0,,,,,,,,
5,7627,0,0.0,,,,,,,,
6,7629,0,0.0,,,,,,,,
0,7632,4,234.38,-570.43,1120.85,1688.23,123.29,-97.05,15.11,51.98,11.18
1,7645,4,-299.56,-2436.16,23.68,-1475.22,93.99,-140.38,17.44,35.63,-31.29
2,7657,4,-209.84,-2195.07,-420.9,-1279.3,590.82,450.44,13.83,25.09,-32.02
3,7672,1,0.0,,,,,,,,
4,7674,0,0.0,,,,,,,,
5,7676,0,0.0,,,,,,,,
6,7677,0,0.0,,,,,,,,
0,7682,4,524.05,-1383.54,1141.6,3370.97,1101.68,-820.92,13.39,51.87,24.19
1,7694,4,-426.64,-2380.37,-33.08,-3278.81,561.52,-316.16,17.79,29.58,-35.01
2,7706,4,-226.56,-1646.73,-50.66,-1603.39,722.05,317.38,15.66,19.76,-34.18
3,7717,0,0.0,,,,,,,,
4,7719,0,0.0,,,,,,,,
5,7721,0,0.0,,,,,,,,
6,7723,0,0.0,,,,,,,,
0,7727,3,594.97,-1111.21,1050.9,2334.59,897.83,-1358.03,13.39,51.87,24.19
1,7741,5,-876.83,-779.79,-869.87,-3152.47,1062.01,-80.57,19.38,18.03,-41.22
2,7753,4,-347.29,-733.64,27.59,-736.69,318.6,242.92,15.66,19.76,-34.18
3,7764,0,0.0,,,,,,,,
4,7767,0,0.0,,,,,,,,
5,7768,0,0.0,,,,,,,,
6,7770,0,0.0,,,,,,,,
0,7773,5,530.52,-2219.97,1378.66,1650.39,1184.69,-944.21,8.13,49.21,32.75
1,7785,5,251.95,713.62,-912.48,-229.49,675.05,-653.08,22.91,5.37,-42.85
2,7797,4,102.05,65.55,-205.57,-243.53,986.94,-25.02,18.25,15.38,-36.99
3,7813,0,0.0,,,,,,,,
4,7815,0,0.0,,,,,,,,
5,7817,0,0.0,,,,,,,,
6,7818,0,0.0,,,,,,,,
0,7822,4,182.5,96.92,642.33,-1114.5,161.74,-521.85,2.97,47.58,37.49
1,7833,5,115.36,-59.2,-554.08,1098.02,715.33,-98.27,26.87,6.46,-42.19
2,7845,6,131.23,-119.63,-64.33,848.39,643.92,-219.73,20.79,14.82,-37.26
3,7858,0,0.0,,,,,,,,
4,7859,0,0.0,,,,,,,,
5,7861,0,0.0,,,,,,,,
6,7863,0,0.0,,,,,,,,
0,7866,4,508.91,-455.69,530.76,-1651.0,345.46,286.87,0.83,50.70,32.57
1,7882,4,91.06,-519.04,-417.36,2276.0,-35.4,-269.78,28.15,12.77,-42.79
2,7895,4,234.01,-379.76,-175.66,1411.13,286.87,-653.69,22.53,18.46,-33.92
3,7906,0,0.0,,,,,,,,
4,7908,0,0.0,,,,,,,,
5,7909,0,0.0,,,,,,,,
6,7911,0,0.0,,,,,,,,
0,7914,5,287.96,-553.22,524.17,-1961.06,195.92,982.67,4.25,52.44,21.67
1,7926,5,-265.26,-882.32,-161.13,2328.49,-443.12,-654.91,26.77,23.79,-40.73
2,7939,5,-134.03,-682.98,-38.21,1974.49,-426.03,-862.43,20.89,25.62,-30.53
3,7951,0,0.0,,,,,,,,
4,7956,1,0.0,,,,,,,,
5,7958,0,0.0,,,,,,,,
6,7960,0,0.0,,,,,,,,
0,7963,4,201.9,-942.87,729.61,-2039.79,439.45,1390.38,9.33,49.34,13.85
1,7975,5,-264.4,-1396.97,152.95,2385.86,-560.3,-1021.73,21.53,34.99,-33.42
2,7988,4,-105.59,-1126.71,0.85,2313.23,-330.2,-1007.69,16.8,31.91,-24.23
3,8000,0,0.0,,,,,,,,
4,8001,0,0.0,,,,,,,,
5,8003,0,0.0,,,,,,,,
6,8005,0,0.0,,,,,,,,
0,8008,4,402.34,-1279.91,925.9,-1974.49,404.66,1488.04,14.18,47.52,8.41
1,8020,5,29.79,-1776.86,376.22,2302.25,-726.32,-856.93,16.3,37.57,-26.21
2,8037,4,-40.04,-1691.53,139.53,2479.86,-328.98,-830.08,12.85,37.11,-17.63
3,8048,1,0.0,,,,,,,,
4,8050,0,0.0,,,,,,,,
5,8052,0,0.0,,,,,,,,
6,8053,0,0.0,,,,,,,,
0,8057,4,486.45,-1777.71,802.61,-1774.29,-49.44,1589.36,19.34,45.25,1.38
1,8070,4,-115.72,-1999.88,1105.59,2070.31,-937.5,-509.03,13.2,40.58,-20.51
2,8082,4,97.53,-1993.16,504.15,2235.72,-635.38,-723.27,9.12,40.52,-9.59
3,8093,0,0.0,,,,,,,,
4,8095,0,0.0,,,,,,,,
5,8100,0,0.0,,,,,,,,
6,8102,0,0.0,,,,,,,,
0,8105,6,372.92,-1858.28,266.48,-1533.81,-461.43,1244.51,23.71,41.60,-3.61
1,8118,5,-578.37,-1650.76,1515.5,1641.24,-759.28,-324.71,11.38,44.04,-15.25
2,8130,5,-304.69,-1630.74,665.41,1372.68,-1174.93,-784.3,5.37,41.15,-1.35
3,8142,0,0.0,,,,,,,,
4,8144,0,0.0,,,,,,,,
5,8145,0,0.0,,,,,,,,
6,8147,0,0.0,,,,,,,,
0,8151,5,-40.77,-1608.28,-131.1,-450.44,495.61,1281.13,26.28,36.58,-7.78
1,8163,5,780.52,-1100.22,1651.61,632.93,-869.75,-836.79,7.53,45.19,-12.28
2,8179,4,73.0,-1381.96,846.92,248.41,-187.38,-130.0,4.15,41.93,1.70
3,8190,2,0.0,,,,,,,,
4,8193,0,0.0,,,,,,,,
5,8195,0,0.0,,,,,,,,
6,8196,0,0.0,,,,,,,,
0,8200,4,-429.44,-1270.87,-226.93,213.01,-421.14,462.65,29.31,34.28,-8.84
1,8212,3,-665.04,-1164.43,1362.67,-349.73,-217.9,258.79,7.53,45.19,-12.28
2,8223,4,-324.83,-1202.27,379.64,-728.76,-104.98,153.81,3.15,41.55,0.34
3,8235,0,0.0,,,,,,,,
4,8237,0,0.0,,,,,,,,
5,8238,1,0.0,,,,,,,,
6,8244,0,0.0,,,,,,,,
0,8247,5,476.2,-807.25,1211.06,1157.23,-508.42,-1033.94,28.71,35.68,-7.87
1,8259,5,-25.27,-1539.55,-519.17,-1226.2,372.31,1287.84,7.73,44.48,-12.72
2,8271,5,-320.68,-1238.4,-689.82,-558.47,-348.51,6.1,3.16,41.89,-2.87
3,8284,0,0.0,,,,,,,,
4,8285,0,0.0,,,,,,,,
5,8287,0,0.0,,,,,,,,
6,8289,0,0.0,,,,,,,,
0,8292,4,285.4,-717.53,726.07,1431.88,-372.31,-411.99,25.13,40.04,-4.68
1,8304,4,-47.97,-968.75,148.44,-1414.79,12.82,463.87,12.87,42.60,-18.19
2,8321,4,-41.14,-1306.03,114.87,-969.24,222.17,142.21,4.74,41.24,-5.99
3,8332,0,0.0,,,,,,,,
4,8334,0,0.0,,,,,,,,
5,8335,0,0.0,,,,,,,,
6,8337,0,0.0,,,,,,,,
0,8340,5,745.61,-970.09,704.96,635.99,-188.6,-324.1,24.78,41.33,-2.44
1,8352,5,-254.52,-930.3,192.38,-261.84,108.64,64.09,14.62,40.71,-23.60
2,8365,5,14.89,-911.99,-49.19,-861.21,-402.83,-110.47,4.28,40.61,-10.51
3,8377,0,0.0,,,,,,,,
4,8378,0,0.0,,,,,,,,
5,8380,0,0.0,,,,,,,,
6,8382,0,0.0,,,,,,,,
0,8397,4,167.36,-674.93,817.99,79.96,-155.03,-79.35,25.54,40.12,-0.65
1,8409,5,-90.21,-961.3,182.98,-9.16,31.74,43.95,14.75,39.69,-24.55
2,8421,5,-386.72,-1112.3,-60.55,-664.67,-59.81,-40.28,4.03,40.01,-12.41
3,8433,0,0.0,,,,,,,,
4,8434,1,0.0,,,,,,,,
5,8436,0,0.0,,,,,,,,
6,8438,0,0.0,,,,,,,,
0,8441,4,228.27,-570.31,795.65,42.11,-86.67,-35.4,24.19,40.34,-0.81
1,8454,4,-78.49,-1026.0,160.52,39.67,29.3,37.23,14.58,39.54,-25.55
2,8466,4,-57.62,-952.03,-0.49,-543.82,278.93,5.49,3.88,39.44,-15.26
3,8481,0,0.0,,,,,,,,
4,8482,1,0.0,,,,,,,,
5,8484,0,0.0,,,,,,,,
6,8486,0,0.0,,,,,,,,
0,8489,5,213.75,-618.9,780.03,9.16,-87.89,-14.65,22.99,42.00,-1.48
1,8502,4,-68.97,-1007.81,169.43,52.49,25.63,13.43,15.37,39.39,-24.69
2,8514,3,-188.35,-1051.51,-12.82,-393.07,23.8,-3.05,3.88,39.44,-15.26
3,8524,0,0.0,,,,,,,,
4,8526,0,0.0,,,,,,,,
5,8527,0,0.0,,,,,,,,
6,8529,0,0.0,,,,,,,,
0,8532,6,194.7,-531.01,809.33,27.47,-9.77,49.44,21.56,43.12,-0.44
1,8549,4,-84.96,-1004.03,174.56,18.31,15.87,-50.66,14.64,38.85,-24.98
2,8560,5,-270.39,-953.37,112.55,-346.07,159.91,6.71,3.82,39.06,-15.92
3,8572,0,0.0,,,,,,,,
4,8574,0,0.0,,,,,,,,
5,8576,0,0.0,,,,,,,,
6,8578,0,0.0,,,,,,,,
0,8581,5,223.51,-507.93,764.4,189.82,126.95,-10.99,21.22,43.71,-0.78
1,8593,4,-46.51,-992.92,176.76,56.15,21.36,4.88,14.7,38.87,-24.80
2,8605,4,-93.14,-1019.29,58.59,-265.5,184.94,-47.61,4.15,38.55,-18.04
3,8616,0,0.0,,,,,,,,
4,8623,0,0.195695,,,,,,,,
5,8624,0,0.0,,,,,,,,
6,8626,0,0.0,,,,,,,,
0,8629,5,191.04,-592.29,769.9,216.06,166.02,13.43,22.23,43.01,0.85
1,8641,4,-73.24,-1045.65,164.79,39.67,14.04,-61.65,15.58,39.17,-25.06
2,8653,4,-233.03,-1028.32,82.15,-285.64,133.67,-15.26,4.22,38.45,-18.63
3,8665,1,0.0,,,,,,,,
4,8667,0,0.195695,,,,,,,,
5,8669,0,0.0,,,,,,,,
6,8670,0,0.0,,,,,,,,
0,8674,4,244.14,-626.1,726.44,214.84,164.18,10.38,22.47,43.26,0.94
1,8685,5,-93.14,-1008.06,183.59,-2.44,44.56,-67.75,14.84,38.65,-25.88
2,8701,5,-179.57,-1007.57,112.67,-315.55,256.96,28.69,4.19,37.52,-19.30
3,8714,0,0.0,,,,,,,,
4,8715,0,0.29383000000000004,,,,,,,,
5,8717,0,0.0,,,,,,,,
6,8719,0,0.0,,,,,,,,
0,8722,4,298.22,-622.56,700.68,175.78,85.45,-21.97,21.92,44.65,1.33
1,8734,4,-119.14,-1021.0,192.75,-47.61,47.61,-40.28,14.62,38.79,-25.88
2,8747,4,-193.85,-991.58,145.75,-375.37,98.88,58.59,4.15,36.43,-20.70
3,8758,0,0.0,,,,,,,,
4,8760,0,0.29383000000000004,,,,,,,,
5,8761,0,0.0,,,,,,,,
6,8767,0,0.0,,,,,,,,
0,8770,5,297.97,-626.95,700.81,158.08,-11.6,-64.7,21.0,45.87,3.02
1,8782,4,-49.32,-1081.3,214.36,-134.28,10.38,17.7,15.05,37.74,-27.84
2,8795,4,-136.23,-1041.87,179.93,-469.36,86.06,104.37,5.79,35.72,-21.89
3,8806,0,0.0,,,,,,,,
4,8808,0,0.195695,,,,,,,,
5,8810,0,0.09775199999999999,,,,,,,,
6,8811,1,0.0,,,,,,,,
0,8815,4,228.39,-615.36,756.84,242.31,32.35,-48.22,19.26,46.97,2.51
1,8827,5,-81.54,-1231.2,222.41,-263.67,-35.4,-112.3,14.71,37.78,-28.15
2,8839,5,-205.2,-1136.96,172.49,-600.59,-3.66,194.7,6.42,33.83,-23.25
3,8855,0,0.0,,,,,,,,
4,8856,1,0.0,,,,,,,,
5,8858,0,0.195695,,,,,,,,
6,8860,0,0.0,,,,,,,,
0,8863,5,302.61,-631.84,812.62,552.37,133.67,-150.15,19.3,47.58,3.05
1,8876,4,-280.52,-1386.84,257.93,-451.05,-9.16,-9.16,14.33,35.94,-29.49
2,8888,4,-306.4,-1286.13,167.11,-777.59,256.96,309.45,8.14,31.53,-25.26
3,8900,0,0.0,,,,,,,,
4,8901,0,0.0,,,,,,,,
5,8903,0,0.195695,,,,,,,,
6,8905,0,0.0,,,,,,,,
0,8908,3,221.31,-649.78,865.36,989.38,111.08,-276.49,19.3,47.58,3.05
1,8923,5,10.01,-1743.9,216.31,-928.34,42.11,-12.21,15.31,33.46,-30.74
2,8935,5,-25.63,-1810.67,-23.19,-1043.7,438.23,457.76,10.46,27.99,-28.60
3,8947,0,0.0,,,,,,,,
4,8949,0,0.0,,,,,,,,
5,8950,0,0.0,,,,,,,,
6,8952,0,0.0,,,,,,,,
0,8955,6,286.01,-532.59,1147.22,2277.83,279.54,-177.0,18.31,49.32,7.76
1,8968,3,-374.76,-2610.11,-90.7,-2130.13,176.39,-231.93,15.31,33.46,-30.74
2,8979,5,-159.91,-2066.28,-379.03,-1406.86,554.81,651.86,14.15,23.03,-30.19
3,8996,0,0.0,,,,,,,,
4,8997,1,0.0,,,,,,,,
5,8999,0,0.0,,,,,,,,
6,9001,0,0.0,,,,,,,,
0,9005,4,592.29,-1176.03,1203.37,3510.13,888.06,-764.77,17.44,50.42,14.65
1,9017,4,-348.63,-2324.22,-130.37,-3722.53,552.98,15.87,15.44,26.22,-35.58
2,9029,4,-508.18,-1458.13,-286.25,-1428.22,726.32,393.68,17.46,17.13,-33.26
3,9041,0,0.0,,,,,,,,
4,9042,0,0.0,,,,,,,,
5,9044,0,0.0,,,,,,,,
6,9047,0,0.0,,,,,,,,
0,9050,4,621.22,-987.3,977.54,2597.05,393.07,-1705.32,15.14,48.80,29.04
1,9066,4,-667.48,511.84,-1150.15,-3403.93,999.76,-76.9,18.07,12.89,-38.57
2,9078,4,-215.58,-272.83,487.3,-814.21,89.72,574.34,19.93,12.92,-33.35
3,9090,0,0.0,,,,,,,,
4,9092,0,0.0,,,,,,,,
5,9094,0,0.0,,,,,,,,
6,9095,0,0.0,,,,,,,,
0,9099,4,1925.9,-2210.08,1480.59,-712.28,692.14,-372.31,8.96,43.21,37.23
1,9110,5,320.68,169.31,-943.24,1832.89,-66.53,90.94,21.39,0.38,-38.55
2,9122,5,-144.17,41.99,-418.21,102.54,-21.36,-42.11,20.61,12.26,-33.23
3,9139,0,0.0,,,,,,,,
4,9140,0,0.0,,,,,,,,
5,9142,0,0.0,,,,,,,,
6,9143,1,0.0,,,,,,,,
0,9147,4,-102.05,56.76,499.39,-1654.05,-325.93,-419.92,6.07,43.81,35.66
1,9159,4,-171.51,-417.36,-479.0,1704.1,558.47,-173.95,23.63,5.40,-39.27
2,9171,4,-132.93,-137.7,-88.26,1094.36,262.45,-281.37,20.61,12.26,-33.23
3,9182,0,0.0,,,,,,,,
4,9184,0,0.0,,,,,,,,
5,9185,1,0.0,,,,,,,,
6,9187,0,0.0,,,,,,,,
0,9190,5,693.36,-365.23,436.89,-1776.12,360.11,518.19,5.25,46.57,31.41
1,9206,5,135.74,-484.13,-365.84,2243.65,-451.66,-361.94,24.87,11.72,-38.22
2,9219,5,249.63,-420.78,-72.88,1788.94,-110.47,-703.74,19.53,16.61,-31.77
3,9231,0,0.0,,,,,,,,
4,9232,1,0.0,,,,,,,,
5,9234,0,0.0,,,,,,,,
6,9236,0,0.0,,,,,,,,
0,9239,4,77.27,-651.61,661.62,-2177.12,126.34,1515.5,7.71,48.19,23.23
1,9251,4,-446.66,-1084.96,-250.0,2694.7,-752.56,-913.7,22.6,20.45,-37.51
2,9264,4,-251.22,-821.78,-223.02,2348.02,-160.52,-938.72,18.3,22.66,-29.15
3,9279,1,0.0,,,,,,,,
4,9281,0,0.0,,,,,,,,
5,9283,0,0.0,,,,,,,,
6,9284,0,0.0,,,,,,,,
0,9288,4,188.48,-1128.42,924.07,-2362.06,370.48,1354.37,13.5,49.32,14.94
1,9300,5,-215.82,-1585.82,24.29,2773.44,-427.86,-820.31,17.96,29.86,-34.13
2,9313,4,46.02,-1224.85,-100.71,2688.6,-120.24,-969.85,15.37,30.87,-24.22
3,9324,0,0.0,,,,,,,,
4,9326,0,0.0,,,,,,,,
5,9328,0,0.0,,,,,,,,
6,9329,0,0.0,,,,,,,,
0,9333,4,440.43,-1585.33,1046.75,-2489.62,200.81,1322.02,18.77,47.73,6.65
1,9345,5,239.26,-2035.89,500.37,2806.4,-599.37,-625.61,14.87,38.48,-27.64
2,9361,5,234.86,-2023.07,319.09,2714.23,-556.64,-811.77,12.22,37.44,-16.76
3,9373,0,0.0,,,,,,,,
4,9375,0,0.0,,,,,,,,
5,9376,0,0.0,,,,,,,,
6,9378,0,0.0,,,,,,,,
0,9381,6,505.74,-2122.8,507.32,-2194.21,-371.09,1704.1,23.3,43.13,-1.70
1,9394,5,-554.93,-2232.18,1597.29,2423.71,-1186.52,-309.45,11.68,43.76,-19.08
2,9406,5,-276.73,-2174.07,859.01,2027.59,-1185.3,-774.54,8.75,41.54,-7.64
3,9418,0,0.0,,,,,,,,
4,9423,1,0.0,,,,,,,,
5,9425,0,0.0,,,,,,,,
6,9427,0,0.0,,,,,,,,
0,9431,4,-362.18,-1975.95,-209.96,-1306.76,441.89,1221.31,26.49,37.06,-9.22
1,9443,4,315.19,-1669.43,2412.35,1102.91,-614.62,-1143.19,9.02,46.36,-11.95
2,9455,5,166.99,-1690.31,1417.6,796.51,-12.21,-354.0,4.86,42.63,0.59
3,9467,0,0.0,,,,,,,,
4,9468,0,0.0,,,,,,,,
5,9470,0,0.0,,,,,,,,
6,9472,1,0.0,,,,,,,,
0,9476,4,-232.79,-1784.18,-609.25,205.08,-253.91,493.77,29.8,32.65,-11.10
1,9488,4,-377.69,-1336.67,2166.99,-160.52,-490.11,437.01,7.07,46.33,-10.82
2,9504,4,-564.33,-1450.2,785.52,-844.73,-53.71,322.27,4.27,43.01,1.00
3,9516,0,0.0,,,,,,,,
4,9518,0,0.0,,,,,,,,
5,9519,1,0.0,,,,,,,,
6,9521,0,0.0,,,,,,,,
0,9524,5,1099.24,-308.84,1023.32,1037.6,-65.92,-1155.4,28.78,35.00,-9.25
1,9536,5,-474.24,-1967.9,-1260.5,-1123.66,809.94,1342.16,12.11,45.17,-15.17
2,9549,4,-500.0,-990.48,-1289.06,-379.64,47.61,-84.23,5.2,43.38,-1.81
3,9561,0,0.0,,,,,,,,
4,9563,0,0.0,,,,,,,,
5,9568,0,0.0,,,,,,,,
6,9570,0,0.0,,,,,,,,
0,9573,4,227.29,-1487.3,900.02,1737.67,-317.99,-458.98,25.7,38.79,-8.07
1,9585,4,-121.7,-852.54,236.57,-1547.85,57.98,188.6,15.84,42.09,-23.73
2,9597,5,67.87,-1478.27,202.15,-973.51,227.05,172.12,6.13,42.22,-4.38
3,9609,1,0.09775199999999999,,,,,,,,
4,9611,0,0.0,,,,,,,,
5,9613,0,0.0,,,,,,,,
6,9614,0,0.0,,,,,,,,
0,9618,4,1128.3,-1265.01,614.01,715.94,170.29,-364.38,27.27,39.47,-4.44
1,9630,3,-232.42,-811.4,287.11,-354.61,-14.04,-125.73,15.84,42.09,-23.73
2,9645,5,-86.79,-748.17,-187.74,-812.38,-342.41,-91.55,5.92,42.69,-8.53
3,9657,0,0.09775199999999999,,,,,,,,
4,9659,0,0.0,,,,,,,,
5,9660,0,0.0,,,,,,,,
6,9662,0,0.0,,,,,,,,
0,9665,5,287.72,-659.3,783.08,359.5,-15.87,-43.95,27.72,40.11,-3.48
1,9677,4,-182.86,-986.33,164.18,-32.35,19.53,-10.38,15.48,40.60,-24.94
2,9690,4,-557.62,-1087.52,-60.42,-689.09,0.61,32.96,5.24,42.30,-11.28
3,9701,1,0.195695,,,,,,,,
4,9703,0,0.09775199999999999,,,,,,,,
5,9705,0,0.0,,,,,,,,
6,9710,0,0.0,,,,,,,,
0,9714,4,341.43,-571.53,771.0,256.35,-68.97,-123.9,26.06,40.65,-1.94
1,9725,6,-129.64,-953.61,189.94,-37.84,80.57,150.76,14.81,40.61,-26.04
2,9738,5,-8.54,-925.78,8.67,-484.62,347.29,95.83,5.52,42.30,-13.73
3,9750,0,0.09775199999999999,,,,,,,,
4,9751,1,0.195695,,,,,,,,
5,9753,0,0.0,,,,,,,,
6,9755,0,0.0,,,,,,,,
0,9758,5,261.84,-631.84,785.52,172.12,-37.84,-65.92,24.54,41.71,-1.15
1,9771,4,-71.66,-1018.19,166.38,43.95,66.53,89.11,15.65,40.41,-26.38
2,9783,4,-90.09,-1090.45,-53.22,-356.45,139.16,9.77,6.02,41.78,-14.39
3,9798,0,0.0,,,,,,,,
4,9800,0,0.39215700000000003,,,,,,,,
5,9801,0,0.0,,,,,,,,
6,9803,0,0.0,,,,,,,,
0,9823,5,302.98,-572.39,726.56,240.48,148.32,-4.27,24.63,42.27,0.22
1,9837,4,-152.59,-952.76,181.52,-40.28,53.71,-68.36,15.54,39.88,-26.76
2,9849,4,-259.77,-956.05,37.96,-307.62,200.81,23.19,6.34,40.87,-16.98
3,9861,0,0.0,,,,,,,,
4,9863,0,0.39215700000000003,,,,,,,,
5,9865,0,0.0,,,,,,,,
6,9866,0,0.0,,,,,,,,
0,9870,4,385.62,-598.02,664.06,224.0,72.02,-47.0,24.6,42.76,0.93
1,9884,4,-158.81,-991.33,181.4,-12.82,106.2,4.88,15.54,39.88,-26.76
2,9895,5,-150.27,-969.73,43.09,-342.41,52.49,23.8,5.82,40.20,-17.47
3,9907,0,0.0,,,,,,,,
4,9909,0,0.49067700000000003,,,,,,,,
5,9911,0,0.0,,,,,,,,
6,9912,0,0.0,,,,,,,,
0,9916,4,322.51,-650.15,667.36,205.69,-62.26,-113.53,23.9,43.32,0.55
1,9928,4,-119.02,-972.53,202.03,-14.65,108.03,67.75,15.75,39.84,-28.02
2,9939,6,-216.67,-999.88,80.81,-379.03,-8.54,22.58,7.07,39.17,-19.02
3,9956,0,0.0,,,,,,,,
4,9957,0,0.49067700000000003,,,,,,,,
5,9959,0,0.0,,,,,,,,
6,9961,0,0.0,,,,,,,,
0,9964,4,274.9,-666.63,683.59,183.72,-48.22,-109.86,23.56,43.98,2.25
1,9976,4,-89.11,-972.78,210.45,-11.6,84.23,54.93,16.1,38.75,-27.86
2,9989,4,-117.92,-991.46,103.52,-413.82,21.97,37.23,7.56,37.73,-19.96
3,10000,0,0.0,,,,,,,,
4,10002,0,0.39215700000000003,,,,,,,,
5,10003,1,0.0,,,,,,,,
6,10005,0,0.0,,,,,,,,
0,10008,5,343.99,-674.68,643.68,181.27,-58.59,-125.12,22.81,44.34,2.50
1,10020,5,-162.35,-976.68,224.24,-33.57,81.79,59.2,16.16,38.61,-27.99
2,10037,4,-274.9,-994.51,183.84,-436.4,-98.88,31.13,6.8,36.78,-21.87
3,10049,0,0.0,,,,,,,,
4,10050,0,0.29383000000000004,,,,,,,,
5,10052,0,0.0,,,,,,,,
6,10054,0,0.0,,,,,,,,
0,10057,4,277.59,-663.21,683.72,150.15,-157.47,-164.18,21.11,45.23,2.73
1,10070,4,-69.34,-1073.97,224.24,-69.58,58.59,133.67,16.72,38.45,-28.06
2,10082,3,-117.19,-1038.7,161.87,-504.15,-15.26,61.65,6.8,36.78,-21.87
3,10092,0,0.0,,,,,,,,
4,10094,0,0.09775199999999999,,,,,,,,
5,10100,0,0.09775199999999999,,,,,,,,
6,10101,1,0.0,,,,,,,,
0,10105,4,262.33,-686.16,714.23,209.96,-91.55,-142.21,19.48,46.29,3.44
1,10118,4,-125.37,-1176.88,250.61,-252.08,-21.36,23.19,17.16,38.31,-28.52
2,10130,4,-309.94,-1122.68,245.61,-587.16,-51.27,145.87,8.12,34.89,-23.17
3,10141,0,0.0,,,,,,,,
4,10143,0,0.0,,,,,,,,
5,10145,0,0.195695,,,,,,,,
6,10146,1,0.0,,,,,,,,
0,10150,5,276.86,-679.57,759.89,353.39,6.71,-127.56,18.14,48.27,3.38
1,10163,4,-175.78,-1295.17,259.4,-335.69,-53.71,8.54,16.7,36.83,-30.73
2,10178,5,-222.53,-1224.61,250.98,-689.09,296.63,261.23,9.2,32.43,-24.60
3,10190,0,0.0,,,,,,,,
4,10191,1,0.0,,,,,,,,
5,10193,0,0.195695,,,,,,,,
6,10195,0,0.0,,,,,,,,
0,10199,5,218.14,-699.22,820.92,737.3,109.86,-184.33,15.65,50.51,7.06
1,10211,5,-29.66,-1626.95,250.98,-635.99,6.71,-12.21,16.64,35.17,-30.96
2,10223,4,-92.41,-1591.55,55.91,-856.93,444.95,383.91,11.28,30.65,-27.08
3,10235,0,0.0,,,,,,,,
4,10236,0,0.0,,,,,,,,
5,10238,0,0.0,,,,,,,,
6,10245,0,0.0,,,,,,,,
0,10248,4,264.16,-577.51,1086.43,1795.65,296.02,-120.24,14.6,52.20,12.35
1,10260,4,-242.19,-2545.9,-35.03,-1723.02,37.23,-275.27,17.7,31.86,-34.02
2,10272,4,-17.7,-2167.36,-520.39,-1320.8,493.77,623.78,14.44,26.07,-29.75
3,10285,0,0.0,,,,,,,,
4,10286,0,0.0,,,,,,,,
5,10288,0,0.0,,,,,,,,
6,10290,0,0.0,,,,,,,,
0,10293,4,417.85,-917.72,1115.72,3368.53,998.54,-319.21,14.0,51.70,23.83
1,10305,4,-139.4,-2513.31,-83.86,-3612.67,389.4,-269.17,18.3,22.22,-39.67
2,10321,5,-377.69,-1607.06,-117.68,-1439.82,640.26,407.1,18.02,21.23,-32.04
3,10334,0,0.0,,,,,,,,
4,10335,0,0.0,,,,,,,,
5,10337,0,0.0,,,,,,,,
6,10339,0,0.0,,,,,,,,
0,10342,4,817.63,-1556.88,1128.66,2397.46,825.2,-1445.31,7.59,49.52,33.80
1,10354,4,-1147.58,-1067.38,-503.54,-3295.29,728.15,-187.99,20.74,8.15,-41.92
2,10366,5,-486.45,-720.21,210.69,-719.6,-164.79,450.44,20.36,16.37,-33.06
3,10379,0,0.0,,,,,,,,
4,10380,0,0.0,,,,,,,,
5,10386,0,0.0,,,,,,,,
6,10388,0,0.0,,,,,,,,
0,10391,4,1957.64,-972.66,1152.59,-288.09,777.59,-657.96,1.73,47.27,35.02
1,10403,4,349.12,177.86,-1007.69,1708.98,37.84,201.42,25.61,4.15,-39.70
2,10416,4,-23.93,53.22,-388.67,97.66,22.58,-87.28,22.41,13.11,-32.84
3,10427,0,0.0,,,,,,,,
4,10429,0,0.0,,,,,,,,
5,10431,0,0.0,,,,,,,,
6,10432,0,0.0,,,,,,,,
0,10436,3,-133.91,94.97,520.63,-1450.81,-489.5,-574.95,1.73,47.27,35.02
1,10446,5,-268.43,-70.43,-511.96,1672.36,796.51,0.0,28.04,9.53,-38.21
2,10463,4,-93.63,-55.79,-161.01,854.49,315.55,-208.13,22.67,14.07,-33.33
3,10475,0,0.0,,,,,,,,
4,10476,0,0.0,,,,,,,,
5,10478,0,0.0,,,,,,,,
6,10480,0,0.0,,,,,,,,
0,10483,4,525.76,-348.63,489.75,-1619.87,31.13,399.78,1.62,47.64,29.08
1,10496,4,156.25,-435.79,-404.05,1945.19,-49.44,-122.07,28.91,16.38,-38.64
2,10508,4,303.22,-356.57,-90.58,1525.88,25.02,-523.68,23.71,19.04,-30.83
3,10519,1,0.0,,,,,,,,
4,10521,0,0.0,,,,,,,,
5,10523,0,0.0,,,,,,,,
6,10528,0,0.0,,,,,,,,
0,10532,4,305.79,-538.57,613.65,-1906.74,-87.89,1409.3,1.7,48.60,22.73
1,10545,3,-464.72,-872.56,-289.31,2426.15,-913.7,-647.58,28.91,16.38,-38.64
2,10556,4,-341.92,-615.36,-123.9,2250.37,-364.38,-745.24,21.79,26.17,-27.04
3,10567,0,0.0,,,,,,,,
4,10569,0,0.0,,,,,,,,
5,10571,0,0.0,,,,,,,,
6,10572,0,0.0,,,,,,,,
0,10576,4,456.42,-978.15,780.15,-2290.04,173.34,1561.89,5.35,51.09,15.50
1,10589,4,-487.92,-1388.31,-55.91,2793.58,-613.4,-561.52,25.87,25.79,-37.11
2,10605,4,-231.81,-1328.74,-88.87,2671.51,-300.9,-824.58,19.01,34.33,-22.08
3,10616,0,0.0,,,,,,,,
4,10618,0,0.0,,,,,,,,
5,10620,0,0.0,,,,,,,,
6,10621,0,0.0,,,,,,,,
0,10626,4,401.98,-1395.63,1001.22,-2460.94,223.39,1121.83,10.18,50.66,6.35
1,10638,4,-49.56,-2020.75,412.11,2699.58,-257.57,-574.34,22.8,34.90,-31.14
2,10650,4,-0.98,-1879.52,168.58,2706.91,-219.12,-706.18,18.1,40.75,-12.55
3,10661,0,0.0,,,,,,,,
4,10663,0,0.0,,,,,,,,
5,10665,0,0.0,,,,,,,,
6,10671,0,0.0,,,,,,,,
0,10675,4,402.22,-2002.69,856.81,-2138.67,-158.08,1204.22,14.15,48.73,-5.02
1,10687,4,-306.76,-2112.79,1187.5,2338.87,-571.9,-413.21,21.57,43.54,-24.66
2,10699,4,-30.76,-2114.62,650.15,2251.59,-474.85,-769.65,14.76,45.17,-1.31
3,10711,1,0.0,,,,,,,,
4,10713,0,0.0,,,,,,,,
5,10715,0,0.0,,,,,,,,
6,10716,0,0.0,,,,,,,,
0,10720,4,286.62,-1940.92,202.51,-1751.1,151.98,1177.98,18.51,38.37,-13.68
1,10732,4,40.53,-1799.07,1972.53,1638.18,-556.64,-940.55,20.51,53.55,-15.47
2,10748,5,37.48,-1762.82,1149.17,1073.0,-272.22,-532.84,11.3,45.34,7.46
3,10760,0,0.0,,,,,,,,
4,10762,0,0.0,,,,,,,,
5,10763,1,0.0,,,,,,,,
6,10765,0,0.0,,,,,,,,
0,10768,5,-398.93,-1963.26,-722.78,-185.55,364.38,1156.62,21.53,31.38,-15.47
1,10781,4,584.96,-1263.18,2284.79,-7.32,-814.82,-181.88,16.14,52.47,-2.10
2,10793,5,-141.85,-1491.21,1079.47,-340.58,-55.54,162.35,10.14,45.01,7.78
3,10805,0,0.0,,,,,,,,
4,10807,0,0.0,,,,,,,,
5,10809,0,0.0,,,,,,,,
6,10814,0,0.0,,,,,,,,
0,10817,5,431.76,-1166.5,283.94,792.24,-164.79,-625.61,22.61,30.52,-13.32
1,10829,5,-473.14,-2397.58,432.25,-509.64,160.52,1163.33,15.16,49.48,-1.46
2,10842,4,-222.53,-943.97,-714.72,-886.84,-390.01,168.46,10.14,45.01,7.78
3,10853,0,0.0,,,,,,,,
4,10855,0,0.0,,,,,,,,
5,10856,0,0.0,,,,,,,,
6,10858,0,0.0,,,,,,,,
0,10861,5,833.62,606.32,844.73,939.94,-473.63,-733.03,20.19,34.13,-11.60
1,10873,5,420.78,-768.55,333.13,-2626.34,401.61,1484.38,20.23,48.41,-4.96
2,10890,4,369.63,-1659.55,397.09,-841.67,406.49,244.14,10.77,45.81,4.17
3,10902,0,0.0,,,,,,,,
4,10903,0,0.0,,,,,,,,
5,10905,0,0.0,,,,,,,,
6,10907,0,0.0,,,,,,,,
0,10910,4,-400.02,-1195.92,1158.94,1148.68,36.62,-384.52,18.38,36.68,-8.14
1,10923,4,74.58,-751.22,406.25,-1082.76,224.0,-143.43,23.57,46.15,-13.12
2,10935,4,158.57,-1556.76,391.85,-994.87,178.22,20.14,12.17,44.10,0.88
3,10946,1,0.0,,,,,,,,
4,10948,0,0.0,,,,,,,,
5,10950,0,0.0,,,,,,,,
6,10955,0,0.0,,,,,,,,
0,10959,4,62.99,-748.78,919.19,656.74,-45.78,-40.28,19.24,36.99,-6.40
1,10971,5,-103.52,-852.91,203.61,-309.45,48.22,-68.36,22.3,45.17,-16.67
2,10983,5,-484.86,-829.96,39.55,-794.07,-625.0,15.87,11.89,44.40,-3.33
3,10995,0,0.0,,,,,,,,
4,10997,0,0.0,,,,,,,,
5,10998,0,0.0,,,,,,,,
6,11000,0,0.0,,,,,,,,
0,11003,6,306.88,-663.09,762.82,249.02,-209.35,-194.09,19.59,37.26,-5.19
1,11016,5,-207.89,-1013.06,172.12,-31.74,95.83,181.88,22.38,44.67,-18.02
2,11032,4,-114.14,-1017.7,12.82,-564.58,308.23,57.98,11.5,44.09,-7.97
3,11043,1,0.09775199999999999,,,,,,,,
4,11045,0,0.09775199999999999,,,,,,,,
5,11047,0,0.0,,,,,,,,
6,11049,0,0.0,,,,,,,,
0,11053,4,235.47,-665.53,771.0,162.35,-187.38,-135.5,18.23,38.18,-3.02
1,11065,4,-77.15,-1004.76,177.98,33.57,70.19,112.92,23.03,44.53,-18.47
2,11077,4,-43.82,-1022.58,-1.1,-399.17,28.08,-38.45,11.63,43.68,-9.66
3,11088,0,0.0,,,,,,,,
4,11090,0,0.09775199999999999,,,,,,,,
5,11092,0,0.0,,,,,,,,
6,11094,1,0.0,,,,,,,,
0,11102,4,227.78,-622.19,774.54,59.2,-64.7,-25.63,16.93,38.87,-3.99
1,11113,5,-83.25,-1016.36,173.71,50.05,28.69,-23.19,23.3,43.92,-18.77
2,11125,5,-263.92,-979.13,10.5,-347.9,-194.09,-61.04,11.58,43.03,-11.01
3,11138,0,0.0,,,,,,,,
4,11140,0,0.09775199999999999,,,,,,,,
5,11141,0,0.0,,,,,,,,
6,11143,0,0.0,,,,,,,,
0,11146,5,303.34,-599.37,728.76,10.99,-78.12,-14.65,14.54,40.59,-2.64
1,11158,5,-120.97,-955.2,185.18,45.78,45.17,56.15,23.33,44.42,-17.99
2,11170,4,-239.01,-942.87,47.49,-250.85,300.9,29.3,11.19,42.37,-13.62
3,11186,1,0.0,,,,,,,,
4,11188,0,0.195695,,,,,,,,
5,11190,0,0.0,,,,,,,,
6,11192,0,0.0,,,,,,,,
0,11195,4,274.41,-567.5,732.42,-21.97,-166.02,-37.23,13.02,42.08,-2.98
1,11207,4,-73.49,-999.51,174.93,70.8,50.05,121.46,23.67,43.71,-19.58
2,11219,5,-93.14,-1020.87,24.29,-258.18,-62.26,-9.77,12.04,41.70,-13.17
3,11231,0,0.0,,,,,,,,
4,11233,0,0.195695,,,,,,,,
5,11235,0,0.0,,,,,,,,
6,11236,0,0.0,,,,,,,,
0,11240,4,223.75,-576.29,757.45,29.91,-119.02,-46.39,11.49,42.90,-3.80
1,11255,5,-98.39,-1011.47,177.73,43.33,56.15,57.37,24.13,43.80,-19.02
2,11268,5,-277.83,-993.16,51.15,-336.3,-166.63,-17.7,12.13,41.32,-14.61
3,11280,0,0.0,,,,,,,,
4,11281,1,0.195695,,,,,,,,
5,11283,0,0.0,,,,,,,,
6,11285,0,0.0,,,,,,,,
0,11288,5,198.49,-575.68,763.18,75.07,-87.89,-80.57,10.58,43.05,-2.94
1,11300,3,-82.64,-1046.75,177.61,45.17,64.7,70.19,24.13,43.80,-19.02
2,11312,4,-185.3,-1025.15,86.91,-409.55,158.08,37.84,12.05,40.16,-16.53
3,11327,0,0.0,,,,,,,,
4,11329,0,0.195695,,,,,,,,
5,11331,0,0.0,,,,,,,,
6,11332,0,0.0,,,,,,,,
0,11336,4,189.82,-602.91,772.58,131.23,-37.84,-92.77,10.03,43.02,-1.68
1,11347,6,-99.85,-1052.12,192.02,-5.49,94.6,47.0,24.1,43.54,-19.92
2,11360,5,-227.66,-1018.55,133.3,-454.71,93.38,55.54,12.84,38.93,-16.97
3,11372,0,0.0,,,,,,,,
4,11374,0,0.39215700000000003,,,,,,,,
5,11375,0,0.0,,,,,,,,
6,11377,0,0.0,,,,,,,,
0,11380,5,164.43,-594.97,798.34,234.38,42.11,-100.71,9.01,44.19,-1.99
1,11397,4,-18.92,-1140.63,189.09,-137.94,2.44,-21.97,24.37,44.03,-19.64
2,11409,4,-142.09,-1112.67,117.68,-573.12,184.94,150.76,13.55,37.12,-19.48
3,11420,0,0.0,,,,,,,,
4,11422,0,0.195695,,,,,,,,
5,11424,0,0.09775199999999999,,,,,,,,
6,11426,0,0.0,,,,,,,,
0,11429,4,194.09,-600.59,805.54,415.04,158.69,-101.32,8.95,44.45,-2.51
1,11442,4,-107.79,-1357.42,243.53,-348.51,10.38,-120.85,24.18,43.92,-21.59
2,11454,4,-329.96,-1189.09,197.14,-690.92,131.23,263.06,14.99,35.03,-22.01
3,11469,0,0.0,,,,,,,,
4,11471,0,0.0,,,,,,,,
5,11473,0,0.29383000000000004,,,,,,,,
6,11474,1,0.0,,,,,,,,
0,11479,4,245.48,-655.88,835.57,781.86,214.23,-252.08,8.2,45.36,0.88
1,11491,4,-76.42,-1438.48,277.34,-629.88,5.49,0.61,23.21,42.10,-23.28
2,11502,5,-86.91,-1444.7,119.51,-865.48,466.31,386.35,17.24,31.46,-24.45
3,11514,0,0.0,,,,,,,,
4,11516,0,0.0,,,,,,,,
5,11517,1,0.195695,,,,,,,,
6,11520,0,0.0,,,,,,,,
0,11524,4,230.96,-667.48,1050.29,1383.06,222.17,-208.13,7.37,47.63,5.88
1,11539,5,-307.13,-2456.54,2.08,-1453.25,-10.99,-136.11,23.39,38.98,-26.78
2,11551,4,-188.6,-2180.66,-361.08,-1278.08,383.3,641.48,17.24,31.46,-24.45
3,11563,0,0.0,,,,,,,,
4,11565,0,0.0,,,,,,,,
5,11566,0,0.0,,,,,,,,
6,11568,0,0.0,,,,,,,,
0,11571,4,244.87,-606.93,1198.61,3088.38,590.21,-308.84,7.37,47.63,5.88
1,11582,5,-349.37,-2630.86,-169.56,-3071.29,444.95,-245.97,24.02,31.91,-32.82
2,11594,5,-221.92,-1868.29,-359.01,-1504.52,797.12,541.99,21.29,25.89,-26.29
3,11611,0,0.0,,,,,,,,
4,11613,0,0.0,,,,,,,,
5,11614,0,0.0,,,,,,,,
6,11616,0,0.0,,,,,,,,
0,11619,5,935.18,-2016.6,1169.8,3118.29,784.91,-1464.23,7.09,49.95,15.06
1,11631,5,-923.34,-1651.0,-92.77,-3461.91,689.7,97.05,26.16,18.20,-39.32
2,11643,6,-160.77,-1146.61,75.56,-940.55,360.72,546.26,24.21,20.19,-29.64
3,11656,0,0.0,,,,,,,,
4,11658,0,0.0,,,,,,,,
5,11659,0,0.0,,,,,,,,
6,11661,0,0.0,,,,,,,,
0,11664,5,326.66,-599.98,734.38,1489.87,1431.27,-1085.82,3.02,47.44,26.44
1,11680,4,-354.86,1300.17,-743.29,-773.32,874.63,-883.79,30.57,5.20,-38.23
2,11693,4,-230.96,-132.08,182.25,-559.08,971.07,51.88,25.87,14.54,-31.20
3,11705,0,0.0,,,,,,,,
4,11706,0,0.0,,,,,,,,
5,11708,0,0.0,,,,,,,,
6,11710,0,0.0,,,,,,,,
0,11713,4,680.54,-96.68,653.93,-1459.96,-872.19,-651.86,-3.55,45.24,30.92
1,11725,4,-536.74,-759.52,-543.33,1830.44,864.87,1076.05,33.12,7.59,-37.23
2,11738,4,-87.28,107.91,-331.91,449.83,-59.2,-228.88,28.47,13.09,-30.90
3,11753,1,0.0,,,,,,,,
4,11755,0,0.0,,,,,,,,
5,11757,0,0.0,,,,,,,,
6,11758,0,0.0,,,,,,,,
0,11762,4,343.02,-5.62,418.95,-1373.29,464.48,-122.07,-5.58,44.53,28.83
1,11774,5,90.82,-313.35,-453.74,1504.52,477.29,-454.1,36.56,11.69,-35.57
2,11787,4,185.18,-249.63,-75.2,1295.17,668.33,-570.07,28.88,16.11,-28.75
3,11798,0,0.0,,,,,,,,
4,11800,0,0.0,,,,,,,,
5,11802,0,0.0,,,,,,,,
6,11803,0,0.0,,,,,,,,
0,11807,4,263.18,-513.92,619.14,-1892.7,870.97,997.92,-6.19,45.97,23.99
1,11820,4,-131.84,-590.45,-430.3,2237.55,-220.95,-1296.39,36.29,19.63,-33.30
2,11836,4,-199.22,-508.54,-159.91,2027.59,272.22,-1031.49,29.16,21.25,-26.46
3,11847,0,0.0,,,,,,,,
4,11849,0,0.0,,,,,,,,
5,11851,0,0.0,,,,,,,,
6,11852,0,0.0,,,,,,,,
0,11856,4,277.95,-847.17,741.09,-2347.41,911.25,1560.06,-3.86,47.31,16.96
1,11869,4,-317.02,-1343.26,-136.11,2779.54,-590.82,-1436.77,32.52,30.48,-30.36
2,11881,4,-24.29,-1088.75,-163.82,2351.68,21.36,-1187.74,28.08,29.43,-21.46
3,11896,0,0.0,,,,,,,,
4,11898,0,0.0,,,,,,,,
5,11899,1,0.0,,,,,,,,
6,11901,0,0.0,,,,,,,,
0,11905,5,485.84,-1244.75,905.76,-2212.52,887.45,1563.72,2.77,48.24,6.80
1,11917,5,-63.11,-1966.92,359.13,2471.92,-529.79,-1220.09,27.44,38.89,-23.57
2,11930,4,140.26,-1633.3,-23.07,2487.18,-421.14,-1276.86,23.66,36.06,-13.67
3,11941,0,0.0,,,,,,,,
4,11943,0,0.0,,,,,,,,
5,11945,0,0.0,,,,,,,,
6,11947,0,0.0,,,,,,,,
0,11951,4,627.81,-1835.33,1135.74,-1986.08,197.14,1638.79,9.39,44.97,-2.10
1,11966,5,124.88,-2249.39,851.2,2393.19,-1208.5,-726.32,23.73,44.13,-17.26
2,11978,5,178.96,-2184.33,290.89,2384.03,-1003.42,-1006.47,19.06,40.93,-5.87
3,11991,0,0.0,,,,,,,,
4,11993,0,0.0,,,,,,,,
5,11995,0,0.0,,,,,,,,
6,11996,0,0.0,,,,,,,,
0,12000,4,579.83,-1829.83,321.29,-1370.85,-696.41,1784.67,14.77,41.75,-7.89
1,12012,3,-511.35,-2104.25,1705.44,1597.29,-1228.03,-39.06,23.73,44.13,-17.26
2,12023,4,-396.12,-1914.55,814.94,1544.19,-1637.57,-942.38,14.59,42.20,2.09
3,12039,0,0.0,,,,,,,,
4,12041,0,0.0,,,,,,,,
5,12043,0,0.0,,,,,,,,
6,12044,0,0.0,,,,,,,,
0,12048,4,-534.3,-2085.2,-168.58,-499.27,266.11,1506.35,16.71,37.90,-12.24
1,12060,4,843.75,-931.03,1922.49,806.88,-1146.24,-1010.13,21.34,46.45,-12.05
2,12072,5,234.25,-1337.28,995.0,245.97,-145.26,-137.33,12.24,42.72,5.99
3,12084,0,0.0,,,,,,,,
4,12086,0,0.0,,,,,,,,
5,12088,0,0.0,,,,,,,,
6,12089,0,0.0,,,,,,,,
0,12093,4,-382.93,-1314.82,-328.61,321.04,-337.52,454.1,20.36,35.28,-13.07
1,12109,4,-503.05,-1007.69,1331.67,-574.34,-211.79,394.9,17.36,47.25,-8.97
2,12122,4,-72.27,-1328.74,597.29,-907.59,-285.64,292.36,12.26,43.37,3.53
3,12133,0,0.0,,,,,,,,
4,12135,0,0.0,,,,,,,,
5,12137,0,0.0,,,,,,,,
6,12138,0,0.0,,,,,,,,
0,12142,4,703.86,15.5,913.09,963.75,-108.64,-686.65,20.04,36.74,-12.11
1,12154,4,-781.37,-1661.62,-729.49,-1197.51,192.87,927.12,18.54,47.06,-11.21
2,12167,4,-677.86,-868.29,-1369.02,-564.58,-394.29,-20.14,13.11,44.03,-0.60
3,12182,0,0.0,,,,,,,,
4,12184,0,0.0,,,,,,,,
5,12185,1,0.0,,,,,,,,
6,12187,0,0.0,,,,,,,,
0,12190,5,337.28,-655.76,636.96,1527.71,-552.37,-425.42,17.96,39.86,-10.50
1,12204,4,260.38,-772.34,268.68,-1719.36,127.56,839.84,22.96,44.09,-17.00
2,12215,5,382.45,-1293.95,51.76,-893.55,362.55,302.73,13.87,43.19,-3.53
3,12227,0,0.0,,,,,,,,
4,12229,0,0.0,,,,,,,,
5,12230,0,0.0,,,,,,,,
6,12232,0,0.0,,,,,,,,
0,12235,5,1068.97,-1169.31,652.95,730.59,-72.02,-423.58,17.14,42.15,-6.08
1,12252,5,-201.17,-1054.93,198.85,-258.79,94.6,140.99,25.16,40.83,-22.51
2,12264,5,-42.11,-918.46,-111.94,-852.66,-404.66,-148.32,13.61,43.07,-7.37
3,12276,0,0.09775199999999999,,,,,,,,
4,12278,0,0.0,,,,,,,,
5,12279,0,0.0,,,,,,,,
6,12281,0,0.0,,,,,,,,
0,12284,6,318.97,-745.36,806.15,208.74,-163.57,-115.97,18.03,41.03,-4.87
1,12297,5,-47.73,-1011.96,169.56,-11.6,37.84,86.67,26.01,40.27,-24.23
2,12309,3,-177.12,-1046.39,-65.92,-629.27,-197.75,-131.23,13.61,43.07,-7.37
3,12324,0,0.195695,,,,,,,,
4,12325,1,0.0,,,,,,,,
5,12327,0,0.0,,,,,,,,
6,12329,0,0.0,,,,,,,,
0,12333,5,320.07,-564.82,771.48,144.65,-108.03,-73.85,17.49,41.19,-3.39
1,12345,4,-121.46,-1025.27,162.96,18.92,32.96,59.2,25.87,40.20,-25.77
2,12357,4,-262.21,-922.12,-36.62,-538.94,149.54,50.66,12.01,42.88,-10.16
3,12368,1,0.09775199999999999,,,,,,,,
4,12370,0,0.0,,,,,,,,
5,12372,0,0.0,,,,,,,,
6,12375,0,0.0,,,,,,,,
0,12378,4,230.59,-628.05,784.79,129.39,-76.9,-60.42,16.58,41.74,-3.37
1,12394,4,-79.1,-1001.83,175.42,46.39,55.54,57.37,26.31,39.59,-24.73
2,12405,5,-118.53,-1038.94,-3.3,-328.37,200.2,1.22,12.28,42.57,-12.78
3,12418,0,0.0,,,,,,,,
4,12420,0,0.09775199999999999,,,,,,,,
5,12421,1,0.0,,,,,,,,
6,12423,0,0.0,,,,,,,,
0,12427,4,245.61,-571.78,768.19,113.53,28.69,5.49,15.33,42.49,-3.80
1,12438,5,-83.62,-1027.95,160.89,47.61,27.47,-29.3,26.56,39.53,-25.81
2,12450,5,-232.67,-927.25,6.35,-291.75,-32.96,-17.7,12.33,42.10,-14.00
3,12463,0,0.0,,,,,,,,
4,12468,0,0.195695,,,,,,,,
5,12470,0,0.0,,,,,,,,
6,12471,1,0.0,,,,,,,,
0,12475,4,290.41,-604.0,717.53,108.64,1.83,-12.82,14.98,43.13,-3.02
1,12487,4,-99.24,-952.03,179.57,31.13,40.28,50.66,26.2,39.22,-25.61
2,12498,6,-205.81,-965.58,42.48,-244.14,167.24,-8.54,11.94,41.86,-16.32
3,12511,0,0.0,,,,,,,,
4,12513,0,0.195695,,,,,,,,
5,12514,0,0.0,,,,,,,,
6,12516,0,0.0,,,,,,,,
0,12519,5,252.2,-598.02,726.81,46.39,-50.66,-17.7,13.65,44.20,-3.37
1,12531,5,-50.05,-990.97,177.0,53.1,31.74,52.49,26.92,39.73,-25.56
2,12548,4,-205.2,-1009.89,25.51,-276.49,76.9,-2.44,12.87,40.98,-16.65
3,12559,0,0.0,,,,,,,,
4,12561,0,0.195695,,,,,,,,
5,12563,0,0.0,,,,,,,,
6,12564,0,0.0,,,,,,,,
0,12568,4,254.88,-593.99,738.77,32.35,-45.17,-7.93,12.71,45.35,-2.66
1,12579,5,-67.02,-985.11,183.11,44.56,29.91,13.43,26.79,39.14,-25.09
2,12592,5,-219.36,-982.42,47.97,-344.85,51.27,23.8,12.49,40.72,-17.19
3,12604,0,0.0,,,,,,,,
4,12605,1,0.29383000000000004,,,,,,,,
5,12607,0,0.0,,,,,,,,
6,12613,0,0.0,,,,,,,,
0,12616,4,262.45,-588.87,732.3,32.35,-77.51,-43.95,11.44,46.40,-2.82
1,12628,5,-85.57,-1009.03,182.62,37.23,43.95,66.53,26.09,39.04,-24.85
2,12641,4,-230.1,-1010.86,109.74,-414.43,47.61,57.37,13.35,39.60,-19.06
3,12652,0,0.0,,,,,,,,
4,12654,0,0.29383000000000004,,,,,,,,
5,12656,0,0.0,,,,,,,,
6,12657,0,0.0,,,,,,,,
0,12661,4,240.48,-571.29,777.83,117.8,-70.19,-115.36,9.83,46.81,-2.83
1,12674,3,-51.88,-1072.27,179.08,-38.45,47.0,83.01,26.09,39.04,-24.85
2,12688,5,-105.71,-1088.5,108.4,-493.16,145.87,111.69,13.79,38.15,-21.09
3,12700,0,0.0,,,,,,,,
4,12702,0,0.29383000000000004,,,,,,,,
5,12703,0,0.0,,,,,,,,
6,12705,0,0.0,,,,,,,,
0,12708,5,207.89,-569.95,789.92,260.62,65.31,-65.31,9.75,47.53,-1.39
1,12721,5,-17.09,-1268.19,171.39,-202.03,19.53,-122.07,27.27,38.95,-26.10
2,12733,5,-244.75,-1124.51,186.04,-635.99,0.61,177.0,14.81,36.80,-22.36
3,12745,0,0.0,,,,,,,,
4,12746,1,0.09775199999999999,,,,,,,,
5,12748,0,0.09775199999999999,,,,,,,,
6,12750,0,0.0,,,,,,,,
0,12753,6,237.67,-623.78,793.82,493.77,169.68,-108.03,9.48,48.13,-0.24
1,12770,4,-205.93,-1281.74,254.27,-509.03,-37.23,-172.12,26.57,37.94,-27.80
2,12782,4,-340.21,-1191.53,190.19,-727.54,299.07,297.24,15.65,34.29,-23.65
3,12794,0,0.0,,,,,,,,
4,12795,0,0.0,,,,,,,,
5,12797,0,0.29383000000000004,,,,,,,,
6,12800,0,0.0,,,,,,,,
0,12803,4,286.87,-653.69,817.87,865.48,195.92,-262.45,9.48,48.13,-0.24
1,12814,4,-76.42,-1534.91,239.99,-682.37,39.67,14.04,25.77,36.68,-28.60
2,12826,4,-129.76,-1505.13,139.89,-891.11,388.18,389.4,18.27,30.76,-26.27
3,12841,0,0.0,,,,,,,,
4,12844,0,0.0,,,,,,,,
5,12846,0,0.0,,,,,,,,
6,12847,0,0.0,,,,,,,,
0,12851,4,323.24,-538.82,1092.9,1741.33,281.98,-222.17,9.03,50.12,2.44
1,12863,4,-253.54,-2255.49,6.23,-1601.56,112.3,-97.66,25.89,34.70,-31.04
2,12875,4,-159.91,-2009.64,-274.66,-1277.47,574.95,605.47,21.48,26.72,-29.37
3,12887,0,0.0,,,,,,,,
4,12889,0,0.0,,,,,,,,
5,12891,0,0.0,,,,,,,,
6,12892,0,0.0,,,,,,,,
0,12896,4,321.66,-778.32,1091.92,3054.2,697.02,-383.3,8.02,52.01,8.47
1,12911,5,-334.35,-2430.91,-24.29,-3101.2,477.29,-205.08,25.89,29.37,-35.00
2,12923,6,-311.52,-1764.16,-158.08,-1500.85,670.78,458.37,25.01,20.74,-30.36
3,12936,0,0.0,,,,,,,,
4,12938,0,0.0,,,,,,,,
5,12939,1,0.0,,,,,,,,
6,12941,0,0.0,,,,,,,,
0,12945,4,906.13,-1507.57,1164.18,2898.56,620.73,-1506.35,6.6,53.06,18.41
1,12957,4,-932.5,-1608.28,-304.93,-3410.03,745.24,355.22,27.38,17.47,-40.27
2,12969,4,-311.89,-1034.3,-141.97,-739.75,191.04,355.83,25.01,20.74,-30.36
3,12984,0,0.0,,,,,,,,
4,12986,0,0.0,,,,,,,,
5,12987,1,0.0,,,,,,,,
6,12989,0,0.0,,,,,,,,
0,12992,5,-39.31,-495.12,714.6,1884.77,1660.16,-1034.55,1.93,49.54,29.86
1,13004,5,-409.06,1724.24,-533.45,-1670.53,1320.8,-1661.38,30.38,4.30,-40.36
2,13018,4,-182.98,-224.49,360.72,-540.77,1219.48,171.51,26.37,16.78,-31.45
3,13029,0,0.0,,,,,,,,
4,13031,0,0.0,,,,,,,,
5,13033,0,0.0,,,,,,,,
6,13034,0,0.0,,,,,,,,
0,13038,4,1159.67,-213.75,661.74,-1414.79,-1071.78,-182.5,-4.24,45.92,34.07
1,13062,5,-610.23,-809.45,-454.83,1245.12,142.82,705.57,32.74,5.94,-40.30
2,13074,5,-65.55,-90.82,-170.41,857.54,-244.14,-238.04,27.32,17.49,-30.80
3,13086,0,0.0,,,,,,,,
4,13088,0,0.0,,,,,,,,
5,13089,0,0.0,,,,,,,,
6,13091,0,0.0,,,,,,,,
0,13094,6,537.23,-396.36,552.0,-1452.64,610.35,537.72,-3.66,47.08,29.82
1,13107,5,376.1,-43.33,-467.29,1838.99,-419.31,-726.32,33.06,10.83,-40.16
2,13119,4,198.49,-316.65,-0.24,1430.66,155.03,-532.84,27.32,17.49,-30.80
3,13134,0,0.0,,,,,,,,
4,13135,0,0.0,,,,,,,,
5,13137,0,0.0,,,,,,,,
6,13139,0,0.0,,,,,,,,
0,13143,4,134.16,-430.18,549.32,-2232.67,-278.32,1543.58,-1.59,49.17,24.08
1,13155,4,-607.67,-971.56,-241.21,2542.72,-1022.34,-568.24,29.44,19.91,-39.15
2,13167,5,-362.06,-624.39,-168.21,2255.25,-377.81,-846.56,27.26,22.85,-29.27
3,13179,0,0.0,,,,,,,,
4,13181,0,0.0,,,,,,,,
5,13182,0,0.0,,,,,,,,
6,13185,0,0.0,,,,,,,,
0,13188,5,541.02,-1032.71,751.46,-2291.87,344.85,1657.1,3.71,50.92,16.56
1,13204,4,-339.48,-1388.55,-90.82,2976.07,-695.19,-431.52,24.9,30.25,-34.75
2,13216,5,-118.04,-1150.27,-160.16,2594.6,-307.62,-849.0,23.39,30.87,-25.27
3,13229,0,0.0,,,,,,,,
4,13231,0,0.0,,,,,,,,
5,13232,0,0.0,,,,,,,,
6,13234,0,0.0,,,,,,,,
0,13237,5,450.07,-1330.2,946.66,-2541.5,214.84,1231.69,10.25,50.56,6.31
1,13249,5,138.18,-2026.49,408.2,2789.31,-454.71,-542.6,22.42,38.81,-26.68
2,13265,6,160.89,-1781.49,154.66,2711.79,-444.34,-760.5,20.04,37.46,-17.38
3,13278,0,0.0,,,,,,,,
4,13280,0,0.0,,,,,,,,
5,13281,0,0.0,,,,,,,,
6,13283,0,0.0,,,,,,,,
0,13286,5,489.01,-2051.03,709.72,-2034.91,-343.02,1518.55,14.25,46.04,-2.49
1,13298,5,-309.94,-2198.85,1404.66,2242.43,-1000.37,-237.43,19.47,44.25,-17.66
2,13310,6,101.2,-2246.22,640.14,2184.45,-697.63,-652.47,16.98,42.54,-7.90
3,13323,0,0.0,,,,,,,,
4,13325,0,0.0,,,,,,,,
5,13326,1,0.0,,,,,,,,
6,13328,0,0.0,,,,,,,,
0,13335,5,224.37,-1935.3,25.88,-1433.11,-225.22,1126.71,18.01,41.33,-8.85
1,13347,5,-462.52,-1616.46,1925.66,1282.35,-512.7,-673.22,18.47,46.08,-12.13
2,13360,5,-268.68,-1670.41,993.9,1209.11,-774.54,-598.14,14.32,43.55,1.07
3,13372,0,0.0,,,,,,,,
4,13374,0,0.0,,,,,,,,
5,13375,0,0.0,,,,,,,,
6,13377,0,0.0,,,,,,,,
0,13380,5,122.8,-1878.05,-410.52,-157.47,278.93,884.4,19.42,36.55,-13.27
1,13392,6,676.15,-923.83,1982.79,269.78,-761.72,-149.54,15.17,47.22,-10.52
2,13409,5,-32.96,-1392.46,902.59,-186.77,-278.93,122.68,12.57,44.24,4.08
3,13421,0,0.0,,,,,,,,
4,13422,1,0.0,,,,,,,,
5,13424,0,0.0,,,,,,,,
6,13426,0,0.0,,,,,,,,
0,13429,5,-353.88,-1447.51,-63.48,471.19,-411.99,-535.28,22.35,36.54,-13.83
1,13442,5,-886.84,-2897.34,829.35,-481.57,513.92,244.14,18.05,46.67,-12.17
2,13454,5,-378.3,-1164.18,8.67,-955.81,71.41,188.6,13.59,44.21,1.78
3,13466,0,0.0,,,,,,,,
4,13467,0,0.0,,,,,,,,
5,13469,0,0.0,,,,,,,,
6,13471,0,0.0,,,,,,,,
0,13478,5,995.97,392.46,1032.23,850.83,-267.94,-776.98,19.21,38.49,-12.05
1,13491,4,127.56,-1034.67,120.61,-2181.4,319.82,1093.14,22.92,43.04,-18.04
2,13503,4,-9.03,-1500.12,161.74,-777.59,-98.27,139.16,13.89,44.80,-1.06
3,13514,1,0.0,,,,,,,,
4,13516,0,0.0,,,,,,,,
5,13518,0,0.0,,,,,,,,
6,13519,1,0.0,,,,,,,,
0,13523,5,-126.22,-1769.17,1182.25,1196.29,-253.3,-354.61,16.66,41.43,-8.85
1,13536,3,37.23,-640.75,436.16,-1001.59,306.4,168.46,22.92,43.04,-18.04
2,13551,4,222.17,-1191.89,-7.57,-958.86,333.86,-39.67,15.54,43.21,-4.50
3,13562,0,0.0,,,,,,,,
4,13564,0,0.0,,,,,,,,
5,13565,1,0.0,,,,,,,,
6,13568,0,0.0,,,,,,,,
0,13572,4,40.65,-752.93,884.64,520.02,-205.08,-153.2,17.22,41.31,-6.41
1,13583,5,-87.04,-880.98,177.25,-181.27,41.5,-1.83,24.52,41.33,-22.25
2,13595,5,-438.6,-823.61,-77.27,-708.62,-559.69,-54.93,13.44,44.47,-8.15
3,13607,0,0.0,,,,,,,,
4,13609,0,0.0,,,,,,,,
5,13611,0,0.0,,,,,,,,
6,13613,0,0.0,,,,,,,,
0,13616,5,282.35,-596.68,796.14,250.24,-125.12,-101.32,16.61,41.60,-5.37
1,13632,4,-144.53,-1029.17,149.78,-24.41,56.76,67.75,24.96,41.08,-24.22
2,13644,4,-116.7,-999.39,-41.5,-584.11,165.41,-29.91,13.59,43.76,-11.96
3,13656,0,0.0,,,,,,,,
4,13658,0,0.0,,,,,,,,
5,13660,0,0.0,,,,,,,,
6,13661,0,0.0,,,,,,,,
0,13665,4,283.69,-627.81,766.85,145.87,-125.12,-65.31,16.32,42.27,-3.76
1,13677,4,-89.11,-938.6,174.44,-14.65,51.27,75.07,25.43,40.47,-24.06
2,13688,5,-170.41,-974.24,-6.35,-427.25,30.52,-16.48,13.22,43.54,-13.65
3,13706,0,0.0,,,,,,,,
4,13707,1,0.09775199999999999,,,,,,,,
5,13709,0,0.0,,,,,,,,
6,13711,0,0.0,,,,,,,,
0,13714,5,258.67,-576.66,789.06,59.81,-125.12,-32.96,14.76,43.32,-4.74
1,13726,5,-99.61,-1043.82,146.24,46.39,36.01,47.61,24.94,39.93,-24.44
2,13739,4,-161.99,-988.53,38.82,-364.38,-68.36,3.66,13.38,42.77,-14.51
3,13750,1,0.0,,,,,,,,
4,13752,0,0.09775199999999999,,,,,,,,
5,13754,0,0.0,,,,,,,,
6,13756,0,0.0,,,,,,,,
0,13759,4,274.29,-589.48,747.8,15.87,-142.21,-26.86,12.55,45.14,-4.64
1,13775,4,-81.91,-959.47,171.88,43.33,43.95,85.45,25.18,40.06,-24.80
2,13787,5,-177.86,-966.55,56.03,-254.52,47.0,15.87,13.32,42.43,-16.19
3,13799,0,0.0,,,,,,,,
4,13801,0,0.09775199999999999,,,,,,,,
5,13802,0,0.0,,,,,,,,
6,13804,0,0.0,,,,,,,,
0,13807,5,237.79,-564.7,759.28,7.32,-138.55,-25.63,11.34,46.51,-3.36
1,13819,6,-83.98,-970.95,161.87,81.18,36.01,81.18,25.62,39.51,-24.55
2,13832,4,-185.55,-995.85,79.83,-239.87,-171.51,-28.69,13.06,41.65,-16.75
3,13847,1,0.0,,,,,,,,
4,13849,0,0.09775199999999999,,,,,,,,
5,13851,0,0.0,,,,,,,,
6,13853,0,0.0,,,,,,,,
0,13856,4,196.41,-563.6,784.06,65.31,-39.67,-8.54,9.95,46.48,-3.87
1,13869,4,-62.26,-997.19,160.16,64.7,33.57,47.0,26.54,39.39,-25.09
2,13880,4,-166.75,-1008.18,59.57,-284.42,211.79,-6.71,13.06,41.65,-16.75
3,13891,0,0.0,,,,,,,,
4,13893,0,0.195695,,,,,,,,
5,13894,1,0.0,,,,,,,,
6,13896,0,0.0,,,,,,,,
0,13899,5,233.4,-572.63,766.36,90.33,12.21,-13.43,9.57,46.95,-3.77
1,13916,4,-68.85,-995.97,168.09,14.04,34.79,12.21,26.56,39.73,-24.71
2,13928,4,-192.38,-1003.17,99.49,-350.34,115.36,14.04,13.44,40.50,-17.86
3,13939,0,0.0,,,,,,,,
4,13941,0,0.29383000000000004,,,,,,,,
5,13943,0,0.0,,,,,,,,
6,13944,1,0.0,,,,,,,,
0,13948,5,229.74,-586.55,760.38,118.41,17.09,-43.33,9.48,47.47,-3.64
1,13961,4,-78.86,-1021.85,166.87,15.87,51.88,20.14,26.76,39.61,-25.89
2,13972,5,-203.86,-1040.16,109.13,-379.64,179.44,51.88,14.32,40.34,-18.99
3,13984,0,0.0,,,,,,,,
4,13990,0,0.39215700000000003,,,,,,,,
5,13991,0,0.0,,,,,,,,
6,13993,0,0.0,,,,,,,,
0,13997,5,173.22,-602.42,768.55,198.97,33.57,-79.96,8.91,48.24,-1.79
1,14009,5,-23.8,-1026.49,177.86,-117.8,-48.22,-1.83,25.85,39.67,-24.88
2,14021,4,-85.33,-1043.21,124.51,-498.66,139.77,100.71,14.78,38.87,-20.62
3,14033,0,0.0,,,,,,,,
4,14034,1,0.39215700000000003,,,,,,,,
5,14036,0,0.0,,,,,,,,
6,14039,0,0.0,,,,,,,,
0,14042,5,262.33,-567.5,783.45,307.01,122.68,-42.72,8.56,48.47,-1.50
1,14054,4,-94.12,-1280.4,193.97,-216.06,10.99,-153.81,26.1,39.26,-27.11
2,14070,4,-348.75,-1127.32,185.3,-629.88,146.48,239.26,15.66,38.11,-22.22
3,14082,1,0.0,,,,,,,,
4,14084,0,0.0,,,,,,,,
5,14086,0,0.195695,,,,,,,,
6,14088,0,0.0,,,,,,,,
0,14091,4,329.1,-597.53,828.25,593.26,196.53,-168.46,8.57,49.07,-0.23
1,14103,4,-231.81,-1367.55,216.67,-449.22,-7.93,-12.21,25.65,37.88,-28.61
2,14115,4,-167.72,-1318.97,213.62,-753.17,364.99,344.85,17.33,35.14,-25.02
3,14127,1,0.0,,,,,,,,
4,14129,0,0.0,,,,,,,,
5,14135,0,0.195695,,,,,,,,
6,14136,0,0.0,,,,,,,,
0,14140,4,250.12,-634.4,966.19,1215.82,222.17,-215.45,7.5,51.32,3.23
1,14152,4,-198.24,-1887.08,187.13,-931.4,17.09,-59.81,25.85,35.77,-30.77
2,14164,5,-213.87,-1832.4,-139.16,-946.66,484.62,575.56,19.76,32.37,-27.49
3,14176,0,0.0,,,,,,,,
4,14178,0,0.0,,,,,,,,
5,14180,0,0.0,,,,,,,,
6,14181,0,0.0,,,,,,,,
0,14185,4,174.8,-559.81,1156.37,2386.47,444.95,-245.36,7.46,53.03,10.16
1,14197,4,-216.67,-2537.23,-145.02,-2261.35,264.89,-266.72,26.03,29.92,-35.34
2,14213,5,78.12,-1972.66,-423.22,-1424.56,659.79,686.04,22.79,27.71,-30.10
3,14225,0,0.0,,,,,,,,
4,14227,0,0.0,,,,,,,,
5,14228,0,0.0,,,,,,,,
6,14230,0,0.0,,,,,,,,
0,14233,5,567.14,-1159.91,1094.85,3510.13,991.21,-840.45,5.46,53.70,22.49
1,14245,4,-321.53,-2220.95,-30.64,-3652.34,507.2,-18.92,26.03,29.92,-35.34
2,14257,5,-361.21,-1352.78,18.68,-1409.3,684.81,449.83,26.88,21.92,-31.21
3,14269,0,0.0,,,,,,,,
4,14271,0,0.0,,,,,,,,
5,14276,0,0.0,,,,,,,,
6,14278,0,0.0,,,,,,,,
0,14281,5,527.71,-1413.82,999.02,2146.0,919.8,-1621.09,-1.95,50.56,32.12
1,14294,5,-1011.11,-181.52,-1149.54,-3000.49,1176.76,-568.85,26.71,17.79,-40.97
2,14306,5,-522.09,-359.25,382.69,-830.69,84.23,424.19,29.69,15.83,-32.70
3,14318,0,0.0,,,,,,,,
4,14320,0,0.0,,,,,,,,
5,14321,0,0.0,,,,,,,,
6,14323,0,0.0,,,,,,,,
0,14326,4,2012.94,-1375.98,1185.18,-137.94,939.33,-629.27,-1.95,50.56,32.12
1,14338,5,11.11,-187.5,-765.01,1861.57,637.82,935.06,31.16,6.05,-41.41
2,14354,4,-234.01,24.54,-375.0,245.97,-39.06,-131.23,30.88,14.86,-33.63
3,14366,0,0.0,,,,,,,,
4,14367,0,0.0,,,,,,,,
5,14369,0,0.0,,,,,,,,
6,14371,0,0.0,,,,,,,,
0,14374,5,-68.85,74.1,422.85,-1657.1,89.11,-576.78,-6.69,49.41,29.31
1,14387,4,-158.33,-377.93,-563.35,1701.05,778.2,-575.56,35.08,9.28,-42.02
2,14399,4,79.1,-110.84,-187.13,1013.79,473.63,-391.85,30.77,18.81,-31.70
3,14410,1,0.0,,,,,,,,
4,14412,0,0.0,,,,,,,,
5,14418,0,0.0,,,,,,,,
6,14419,0,0.0,,,,,,,,
0,14424,4,763.43,-332.03,369.63,-1418.46,547.49,1427.0,-7.35,50.17,23.94
1,14436,4,468.99,-453.49,-423.34,1817.63,-1265.26,-1087.04,36.66,15.84,-40.30
2,14448,4,222.9,-303.34,-213.5,1695.56,-482.18,-841.06,29.91,25.61,-29.10
3,14459,1,0.0,,,,,,,,
4,14461,0,0.0,,,,,,,,
5,14464,0,0.0,,,,,,,,
6,14465,1,0.0,,,,,,,,
0,14469,4,202.88,-586.55,605.71,-1284.79,-1.83,2648.32,-3.28,52.15,14.69
1,14481,4,-808.84,-850.83,-147.22,1989.14,-1932.37,-1154.79,30.48,26.23,-39.60
2,14497,4,-553.71,-794.68,-1.1,2219.85,-691.53,-966.8,24.61,33.76,-23.51
3,14509,0,0.0,,,,,,,,
4,14511,0,0.0,,,,,,,,
5,14513,0,0.0,,,,,,,,
6,14514,0,0.0,,,,,,,,
0,14518,4,191.16,-1293.7,920.29,-2029.42,-232.54,1848.14,7.34,52.43,8.34
1,14530,4,-1054.81,-1451.17,67.26,2815.55,-778.2,-394.9,21.85,36.63,-36.51
2,14542,4,-196.41,-1289.92,-90.45,2544.56,-203.25,-983.28,20.9,40.11,-14.42
3,14555,0,0.0,,,,,,,,
4,14556,0,0.0,,,,,,,,
5,14562,0,0.0,,,,,,,,
6,14563,0,0.0,,,,,,,,
0,14583,4,584.59,-1559.08,980.1,-2471.92,23.8,897.83,18.74,44.53,-5.85
1,14598,4,1.34,-2215.82,855.96,2590.33,-425.42,-59.2,18.99,42.58,-25.05
2,14610,4,326.9,-2093.87,351.44,2481.69,37.84,-653.08,18.04,42.71,-5.74
3,14621,0,0.0,,,,,,,,
4,14623,0,0.0,,,,,,,,
5,14624,1,0.0,,,,,,,,
6,14626,0,0.0,,,,,,,,
0,14629,6,706.54,-2018.19,512.21,-2009.89,-384.52,1018.07,20.59,38.17,-11.56
1,14643,4,-1094.85,-1804.08,1388.92,2196.66,-504.76,-145.26,17.57,45.29,-16.75
2,14658,4,-311.28,-1934.57,686.89,1781.01,-971.07,-971.07,14.61,43.64,2.51
3,14669,0,0.0,,,,,,,,
4,14671,0,0.0,,,,,,,,
5,14672,1,0.0,,,,,,,,
6,14674,0,0.0,,,,,,,,
0,14679,4,-216.8,-1370.0,-142.21,-733.03,897.22,1245.73,24.95,33.11,-14.22
1,14691,4,1080.32,-1702.03,1948.73,621.95,-846.56,-1216.43,16.54,47.68,-10.31
2,14703,4,316.41,-1491.09,1007.57,567.02,10.38,-259.4,11.5,43.85,6.98
3,14714,0,0.0,,,,,,,,
4,14721,0,0.0,,,,,,,,
5,14722,1,0.0,,,,,,,,
6,14724,0,0.0,,,,,,,,
0,14727,5,-325.93,-1718.14,-339.36,446.78,-239.26,820.31,26.97,33.31,-14.69
1,14740,4,-859.62,-860.6,1594.97,-434.57,-238.04,-3.05,12.06,48.03,-8.18
2,14752,4,-241.33,-1420.9,801.64,-646.36,134.28,233.15,12.07,44.24,6.52
3,14764,0,0.0,,,,,,,,
4,14766,0,0.0,,,,,,,,
5,14767,0,0.0,,,,,,,,
6,14769,0,0.0,,,,,,,,
0,14772,4,543.46,-1048.95,437.01,452.27,-707.4,-1046.75,26.97,33.31,-14.69
1,14783,5,-678.71,-1087.28,-789.92,-136.72,534.06,1445.92,13.24,48.18,-9.29
2,14799,5,-755.37,-680.18,-1899.54,-675.66,-748.9,43.95,12.81,45.23,2.55
3,14812,0,0.0,,,,,,,,
4,14813,1,0.0,,,,,,,,
5,14815,0,0.0,,,,,,,,
6,14817,0,0.0,,,,,,,,
0,14820,5,717.77,-15.99,470.09,998.54,-474.85,-971.68,23.83,35.50,-13.05
1,14832,4,518.92,-595.58,471.92,-2262.57,537.72,1503.3,19.65,46.53,-14.64
2,14844,6,394.41,-1436.77,201.17,-890.5,360.11,213.62,14.03,43.74,-1.68
3,14857,0,0.0,,,,,,,,
4,14862,0,0.0,,,,,,,,
5,14864,0,0.0,,,,,,,,
6,14866,0,0.0,,,,,,,,
0,14869,4,388.92,-1240.23,1005.62,939.94,-133.67,-531.01,20.81,38.06,-12.28
1,14881,4,64.7,-660.16,483.15,-866.7,214.23,128.78,23.8,43.24,-21.28
2,14894,4,51.51,-1097.9,146.85,-915.53,-327.76,-43.33,13.42,44.54,-5.20
3,14905,1,0.195695,,,,,,,,
4,14907,0,0.0,,,,,,,,
5,14909,0,0.0,,,,,,,,
6,14911,0,0.0,,,,,,,,
0,14914,4,141.97,-731.2,868.9,565.19,-76.9,-107.42,21.08,38.75,-8.31
1,14926,4,-104.0,-865.48,223.27,-205.69,39.06,-22.58,24.24,42.16,-23.51
2,14943,3,-353.88,-978.52,-60.91,-600.59,-285.64,-135.5,13.42,44.54,-5.20
3,14953,0,0.29383000000000004,,,,,,,,
4,14955,0,0.0,,,,,,,,
5,14957,0,0.0,,,,,,,,
6,14958,0,0.0,,,,,,,,
0,14962,4,479.49,-586.67,754.64,302.73,-42.72,-78.74,21.2,39.44,-7.24
1,14974,5,-230.71,-952.39,174.32,-19.53,46.39,61.65,24.07,42.19,-23.60
2,14986,5,-300.66,-938.11,-62.13,-534.67,365.6,77.51,11.9,44.54,-8.89
3,14998,0,0.195695,,,,,,,,
4,15000,0,0.0,,,,,,,,
5,15005,0,0.0,,,,,,,,
6,15007,0,0.0,,,,,,,,
0,15010,5,374.76,-599.24,731.93,200.2,-198.36,-161.74,20.46,40.56,-6.24
1,15023,5,-165.89,-991.58,157.35,33.57,108.64,225.83,25.16,41.80,-25.24
2,15035,5,-146.73,-989.26,-91.06,-362.55,79.35,-10.38,12.33,44.36,-9.62
3,15047,0,0.09775199999999999,,,,,,,,
4,15049,0,0.0,,,,,,,,
5,15050,0,0.0,,,,,,,,
6,15052,0,0.0,,,,,,,,
0,15055,5,241.46,-634.03,754.39,174.56,-286.87,-191.65,19.24,41.66,-5.18
1,15068,5,-14.89,-917.48,193.85,-8.54,67.75,209.96,25.61,42.10,-24.69
2,15084,4,-138.79,-1033.33,-48.22,-315.55,-134.89,-6.1,12.54,43.64,-12.07
3,15095,1,0.0,,,,,,,,
4,15097,0,0.0,,,,,,,,
5,15099,0,0.0,,,,,,,,
6,15100,0,0.0,,,,,,,,
0,15105,4,289.31,-559.94,739.87,144.04,-31.74,-21.97,16.98,41.86,-4.81
1,15117,4,-139.28,-995.48,165.53,24.41,47.0,28.08,25.42,41.56,-24.30
2,15128,5,-290.16,-962.52,-32.1,-303.34,177.61,25.63,11.68,43.40,-13.84
3,15140,0,0.0,,,,,,,,
4,15142,0,0.09775199999999999,,,,,,,,
5,15143,1,0.0,,,,,,,,
6,15150,0,0.0,,,,,,,,
0,15153,5,336.06,-576.05,708.74,175.17,-87.89,-92.77,16.77,42.81,-3.67
1,15165,5,-92.04,-991.21,179.08,3.05,75.68,118.41,26.03,41.04,-24.98
2,15177,4,-228.39,-1014.89,31.98,-384.52,80.57,65.31,11.89,43.25,-14.37
3,15188,2,0.0,,,,,,,,
4,15191,0,0.195695,,,,,,,,
5,15193,0,0.0,,,,,,,,
6,15195,0,0.0,,,,,,,,
0,15198,4,300.42,-580.69,720.21,145.87,-56.76,-99.49,15.65,43.75,-4.58
1,15210,3,-110.6,-1012.21,165.77,4.88,72.02,78.12,26.03,41.04,-24.98
2,15224,5,-193.85,-976.93,70.43,-490.11,106.81,93.38,12.24,42.64,-15.88
3,15237,0,0.0,,,,,,,,
4,15239,0,0.195695,,,,,,,,
5,15240,1,0.0,,,,,,,,
6,15242,0,0.0,,,,,,,,
0,15245,5,229.49,-657.71,721.8,203.25,-103.15,-148.32,14.71,43.98,-3.25
1,15257,5,-68.48,-967.16,202.27,-28.69,153.2,104.98,25.9,41.09,-24.80
2,15269,6,-233.64,-989.5,157.96,-491.33,47.61,65.92,13.23,41.14,-17.99
3,15282,0,0.0,,,,,,,,
4,15283,1,0.29383000000000004,,,,,,,,
5,15285,0,0.0,,,,,,,,
6,15287,0,0.0,,,,,,,,
0,15290,5,235.84,-647.83,724.73,144.65,-114.75,-143.43,13.13,44.68,-2.91
1,15306,4,-67.87,-1035.89,200.2,0.61,87.28,115.36,27.56,40.45,-24.72
2,15319,4,-211.06,-1084.96,63.84,-546.88,239.87,120.85,13.55,40.03,-19.36
3,15330,1,0.0,,,,,,,,
4,15332,0,0.29383000000000004,,,,,,,,
5,15334,0,0.0,,,,,,,,
6,15336,0,0.0,,,,,,,,
0,15339,4,191.16,-662.23,750.37,208.13,-54.93,-137.94,11.1,46.09,-3.34
1,15351,4,8.79,-1125.0,207.4,-211.79,-16.48,13.43,27.69,40.10,-24.91
2,15364,4,-223.51,-1166.63,158.08,-690.31,90.33,236.21,14.23,38.67,-21.56
3,15379,0,0.0,,,,,,,,
4,15381,0,0.195695,,,,,,,,
5,15382,1,0.09775199999999999,,,,,,,,
6,15384,0,0.0,,,,,,,,
0,15388,4,206.67,-639.65,832.64,408.94,111.69,-97.05,9.9,47.38,-0.94
1,15399,6,-172.0,-1448.12,249.76,-467.53,-65.31,-142.82,27.47,39.67,-26.32
2,15413,4,-312.01,-1222.66,217.29,-821.53,359.5,391.24,16.46,35.52,-25.28
3,15424,0,0.0,,,,,,,,
4,15426,0,0.0,,,,,,,,
5,15427,1,0.195695,,,,,,,,
6,15429,0,0.0,,,,,,,,
0,15433,4,208.74,-628.54,868.77,900.27,211.18,-227.05,8.64,49.26,0.52
1,15449,5,-109.01,-1787.6,245.61,-769.04,-6.71,-41.5,27.01,37.88,-28.19
2,15461,5,-244.38,-1703.74,14.89,-989.38,533.45,504.15,20.09,31.34,-27.28
3,15473,0,0.0,,,,,,,,
4,15474,1,0.0,,,,,,,,
5,15476,0,0.0,,,,,,,,
6,15478,0,0.0,,,,,,,,
0,15481,5,322.63,-519.9,1102.78,2124.63,325.93,-286.87,7.46,52.00,4.38
1,15494,4,-214.23,-2544.8,-115.11,-1745.61,297.24,-180.66,26.35,35.42,-31.36
2,15506,5,-20.75,-2133.67,-452.64,-1470.95,713.5,748.9,23.47,26.62,-29.99
3,15522,0,0.0,,,,,,,,
4,15523,0,0.0,,,,,,,,
5,15525,0,0.0,,,,,,,,
6,15527,0,0.0,,,,,,,,
0,15531,4,463.75,-1014.89,1133.06,3652.95,960.69,-490.72,6.03,54.61,15.89
1,15543,4,-88.01,-2504.03,-112.3,-3768.92,560.91,-184.33,27.15,27.60,-38.01
2,15555,5,-286.99,-1535.77,-98.88,-1536.25,839.23,466.92,27.32,20.56,-31.73
3,15567,0,0.0,,,,,,,,
4,15569,0,0.0,,,,,,,,
5,15570,0,0.0,,,,,,,,
6,15572,0,0.0,,,,,,,,
0,15576,5,954.35,-1367.92,1099.12,2531.74,663.45,-1710.21,1.61,51.75,28.81
1,15592,4,-1315.19,-755.13,-929.93,-3396.61,894.78,-35.4,29.13,12.72,-42.21
2,15604,5,-421.63,-792.72,238.65,-632.93,-175.78,526.73,28.85,16.26,-33.46
3,15617,0,0.0,,,,,,,,
4,15619,0,0.0,,,,,,,,
5,15620,0,0.0,,,,,,,,
6,15622,0,0.0,,,,,,,,
0,15625,5,2058.47,-2423.95,1455.69,735.47,1876.22,-694.58,-4.77,48.79,31.56
1,15637,5,804.57,445.31,-1047.36,1830.44,-211.18,60.42,33.11,3.27,-40.60
2,15649,4,45.9,188.11,-339.72,-191.65,256.35,-86.06,28.85,16.26,-33.46
3,15665,0,0.0,,,,,,,,
4,15666,0,0.0,,,,,,,,
5,15668,0,0.0,,,,,,,,
6,15670,0,0.0,,,,,,,,
0,15673,4,-386.35,201.9,465.33,-1649.78,-734.86,-183.72,-5.03,48.61,28.58
1,15685,4,-90.21,-158.08,-513.43,1416.02,177.61,-526.73,34.35,9.69,-40.31
2,15697,5,153.69,-91.8,-132.08,1200.56,158.69,-303.96,28.71,15.50,-31.97
3,15710,0,0.0,,,,,,,,
4,15711,0,0.0,,,,,,,,
5,15713,0,0.0,,,,,,,,
6,15715,0,0.0,,,,,,,,
0,15718,4,851.2,-341.92,340.82,-1553.96,405.27,1290.89,-2.55,50.61,22.16
1,15734,4,94.85,-392.58,-417.72,2023.93,-1207.89,-636.6,31.48,17.77,-40.98
2,15747,4,22.22,-365.6,-96.31,1768.8,-490.11,-762.33,28.8,20.06,-30.42
3,15758,0,0.0,,,,,,,,
4,15760,0,0.0,,,,,,,,
5,15762,0,0.0,,,,,,,,
6,15763,0,0.0,,,,,,,,
0,15767,4,162.84,-671.75,597.17,-1857.91,-213.01,2122.19,5.31,52.54,15.42
1,15779,4,-763.55,-1117.68,-172.49,2528.69,-1311.65,-697.63,25.32,27.10,-38.49
2,15792,4,-403.32,-795.29,-88.13,2274.17,-502.93,-914.31,25.89,26.37,-27.19
3,15807,1,0.0,,,,,,,,
4,15809,0,0.0,,,,,,,,
5,15811,0,0.0,,,,,,,,
6,15812,1,0.0,,,,,,,,
0,15816,4,252.2,-1155.76,876.1,-2344.97,107.42,1356.2,12.49,51.45,6.77
1,15828,5,-567.87,-1392.58,107.67,2833.25,-429.69,-551.15,20.69,36.32,-32.19
2,15841,4,-32.84,-1364.14,-83.74,2568.36,-134.89,-872.19,22.03,34.61,-22.58
3,15853,0,0.0,,,,,,,,
4,15854,0,0.0,,,,,,,,
5,15856,0,0.0,,,,,,,,
6,15858,0,0.0,,,,,,,,
0,15861,4,468.63,-1293.46,900.51,-2363.28,351.56,1010.13,16.3,47.60,-1.95
1,15878,4,-109.37,-2204.35,732.67,2303.47,-242.92,-457.76,18.53,42.57,-24.49
2,15890,4,121.7,-1986.45,367.92,2494.51,114.14,-676.88,18.88,40.19,-13.50
3,15901,1,0.0,,,,,,,,
4,15903,0,0.0,,,,,,,,
5,15905,0,0.0,,,,,,,,
6,15906,1,0.0,,,,,,,,
0,15910,5,767.7,-2144.9,546.88,-2041.02,-164.79,1101.68,19.7,42.76,-9.09
1,15923,4,-231.81,-1890.99,1437.5,2261.96,-656.13,-184.94,16.41,46.01,-15.75
2,15935,4,148.8,-1959.59,707.4,1974.49,-1076.05,-770.87,15.81,43.79,-5.05
3,15950,1,0.0,,,,,,,,
4,15952,0,0.0,,,,,,,,
5,15954,0,0.0,,,,,,,,
6,15955,0,0.0,,,,,,,,
0,15960,4,58.23,-1617.55,-40.65,-1008.3,-54.32,1395.26,22.58,37.02,-12.45
1,15972,4,347.17,-1511.35,1757.45,1074.83,-1096.19,-587.16,14.09,48.10,-11.27
2,15984,4,68.48,-1593.75,991.46,917.36,-299.68,-302.73,13.22,44.25,1.99
3,15995,1,0.0,,,,,,,,
4,15997,0,0.0,,,,,,,,
5,16000,0,0.0,,,,,,,,
6,16001,1,0.0,,,,,,,,
0,16005,4,-523.44,-1787.72,-509.89,-43.95,-294.8,861.21,24.48,34.85,-13.87
1,16021,3,-565.67,-1200.2,1979.86,-88.5,-185.55,107.42,14.09,48.10,-11.27
2,16032,4,-188.48,-1435.55,912.48,-393.68,97.66,155.03,11.18,44.82,4.44
3,16044,0,0.0,,,,,,,,
4,16046,0,0.0,,,,,,,,
5,16047,1,0.0,,,,,,,,
6,16049,0,0.0,,,,,,,,
0,16052,4,47.24,-1155.03,167.36,609.74,-70.19,-859.99,24.48,34.85,-13.87
1,16063,5,-845.7,-891.85,-384.16,-1262.21,803.83,1138.92,13.76,48.43,-10.86
2,16075,5,-608.03,-643.55,-1108.76,-783.08,-208.74,120.24,12.46,45.32,1.64
3,16092,0,0.0,,,,,,,,
4,16094,0,0.0,,,,,,,,
5,16095,0,0.0,,,,,,,,
6,16097,0,0.0,,,,,,,,
0,16100,5,670.41,-451.9,491.94,1104.13,-585.94,-1187.13,22.01,37.60,-12.65
1,16112,5,462.04,-676.64,435.67,-1881.1,429.69,1134.64,18.13,46.58,-14.42
2,16124,6,436.4,-1492.8,87.28,-988.16,420.53,391.24,12.79,44.67,-1.81
3,16137,0,0.0,,,,,,,,
4,16139,0,0.0,,,,,,,,
5,16140,0,0.0,,,,,,,,
6,16142,0,0.0,,,,,,,,
0,16145,5,54.2,-1378.3,1046.26,1005.25,-318.6,-458.37,18.85,40.15,-10.39
1,16161,5,110.11,-899.17,271.36,-381.47,154.42,156.86,23.94,43.24,-23.05
2,16174,4,35.16,-799.44,-104.86,-1008.3,-244.14,-61.04,14.01,44.40,-5.97
3,16186,0,0.0,,,,,,,,
4,16187,0,0.0,,,,,,,,
5,16189,0,0.0,,,,,,,,
6,16191,0,0.0,,,,,,,,
0,16194,4,280.64,-815.06,801.03,424.19,-232.54,-190.43,18.7,40.78,-7.04
1,16206,4,-81.18,-954.35,202.64,-71.41,54.93,110.47,25.17,41.78,-24.35
2,16219,4,-222.9,-992.92,-52.37,-659.79,-376.59,-106.81,12.4,44.04,-10.03
3,16234,0,0.0,,,,,,,,
4,16236,0,0.0,,,,,,,,
5,16238,0,0.0,,,,,,,,
6,16239,0,0.0,,,,,,,,
0,16243,4,260.74,-623.78,795.9,104.37,-96.44,-74.46,18.03,40.32,-5.94
1,16256,4,-90.7,-1015.5,183.59,52.49,28.69,41.5,25.34,42.13,-24.38
2,16267,5,-275.15,-928.1,-21.12,-584.11,116.58,-3.05,12.33,44.01,-12.27
3,16279,0,0.0,,,,,,,,
4,16281,0,0.0,,,,,,,,
5,16282,0,0.0,,,,,,,,
6,16284,0,0.0,,,,,,,,
0,16287,5,299.93,-558.35,753.66,51.27,-86.06,-62.87,17.11,40.97,-5.94
1,16304,4,-92.9,-1022.95,177.61,73.85,54.32,78.74,25.56,41.39,-24.41
2,16316,4,-197.14,-1008.79,-4.39,-441.28,161.13,47.61,12.49,43.29,-14.06
3,16327,0,0.0,,,,,,,,
4,16329,0,0.0,,,,,,,,
5,16331,0,0.0,,,,,,,,
6,16332,0,0.0,,,,,,,,
0,16336,4,310.91,-569.34,751.95,28.69,-151.98,-92.16,16.44,42.15,-5.75
1,16348,5,-99.73,-1014.89,163.33,71.41,56.15,97.66,25.49,41.21,-24.38
2,16360,4,-100.83,-967.65,-23.32,-401.61,-250.85,-4.88,12.49,43.29,-14.06
3,16375,0,0.0,,,,,,,,
4,16376,0,0.0,,,,,,,,
5,16378,0,0.0,,,,,,,,
6,16380,0,0.0,,,,,,,,
0,16384,4,162.6,-591.31,778.69,-20.14,-237.43,-97.05,13.71,43.27,-5.38
1,16396,4,-68.6,-965.45,182.13,59.2,47.61,100.71,25.73,40.93,-23.91
2,16408,4,-232.18,-981.93,73.85,-340.58,-19.53,53.1,12.19,42.27,-16.28
3,16419,0,0.0,,,,,,,,
4,16421,0,0.0,,,,,,,,
5,16423,0,0.0,,,,,,,,
6,16424,0,0.0,,,,,,,,
0,16429,4,192.14,-560.06,777.83,32.35,-125.73,-27.47,11.28,44.71,-6.15
1,16444,5,-75.56,-1042.6,162.11,46.39,40.28,76.29,26.51,40.70,-23.43
2,16456,4,-108.15,-999.88,60.18,-339.36,-4.27,-14.04,12.84,41.97,-16.85
3,16468,0,0.0,,,,,,,,
4,16470,0,0.0,,,,,,,,
5,16472,0,0.0,,,,,,,,
6,16474,0,0.0,,,,,,,,
0,16477,4,200.2,-555.18,781.01,103.15,-64.7,-63.48,9.84,45.75,-5.03
1,16489,4,-55.79,-990.6,178.59,1.22,45.78,51.88,26.31,41.19,-25.05
2,16500,5,-282.84,-1012.7,121.09,-362.55,-11.6,6.1,13.23,41.26,-18.51
3,16513,0,0.0,,,,,,,,
4,16518,0,0.0,,,,,,,,
5,16520,0,0.0,,,,,,,,
6,16522,0,0.0,,,,,,,,
0,16525,4,171.88,-563.48,772.58,182.5,10.99,-40.89,8.75,46.28,-4.42
1,16537,4,-55.05,-1015.75,193.36,1.83,42.11,3.05,27.08,40.84,-25.28
2,16549,4,-203.13,-1039.31,170.17,-387.57,134.89,14.65,12.41,40.33,-20.14
3,16561,0,0.0,,,,,,,,
4,16563,0,0.09775199999999999,,,,,,,,
5,16565,0,0.0,,,,,,,,
6,16566,0,0.0,,,,,,,,
0,16570,4,234.25,-579.83,780.03,249.02,46.39,-59.81,8.73,46.73,-3.77
1,16581,5,-93.02,-1080.69,185.18,-46.39,78.12,23.19,26.84,40.44,-24.93
2,16598,4,-242.92,-1061.04,125.98,-467.53,219.73,93.99,13.31,39.34,-21.02
3,16610,0,0.0,,,,,,,,
4,16611,1,0.09775199999999999,,,,,,,,
5,16613,0,0.0,,,,,,,,
6,16615,0,0.0,,,,,,,,
0,16618,5,165.65,-601.93,810.67,371.7,84.84,-125.73,8.45,47.47,-3.50
1,16630,3,34.79,-1234.13,212.4,-255.74,-111.69,-26.86,26.84,40.44,-24.93
2,16642,4,-147.95,-1169.92,153.44,-759.28,319.82,256.35,14.04,37.94,-22.39
3,16654,0,0.0,,,,,,,,
4,16655,0,0.0,,,,,,,,
5,16661,0,0.0,,,,,,,,
6,16662,0,0.0,,,,,,,,
0,16666,4,175.66,-615.36,853.03,659.18,271.0,-89.72,7.82,48.57,-2.51
1,16678,5,-77.03,-1431.88,252.56,-546.88,-90.33,-173.95,27.34,40.03,-26.62
2,16691,4,-236.45,-1332.76,145.87,-812.38,397.34,416.26,16.16,35.72,-24.93
3,16702,0,0.0,,,,,,,,
4,16704,0,0.0,,,,,,,,
5,16706,0,0.195695,,,,,,,,
6,16707,0,0.0,,,,,,,,
0,16711,4,288.82,-609.62,967.16,1159.06,285.64,-140.99,8.02,49.91,1.43
1,16723,5,-125.37,-2058.35,201.54,-1002.2,-51.88,-109.25,25.24,38.87,-28.63
2,16739,5,-199.46,-2030.27,-271.48,-1129.15,504.15,680.54,19.93,31.79,-27.05
3,16751,0,0.0,,,,,,,,
4,16753,0,0.0,,,,,,,,
5,16755,0,0.0,,,,,,,,
6,16756,0,0.0,,,,,,,,
0,16760,4,277.71,-547.24,1166.75,2600.71,451.05,-239.26,7.23,52.58,6.62
1,16772,5,-529.05,-2646.85,-233.64,-2554.93,373.54,-260.01,25.32,35.22,-32.73
2,16785,4,-71.53,-1956.18,-427.37,-1502.69,637.21,726.32,23.65,26.37,-30.22
3,16796,0,0.0,,,,,,,,
4,16798,0,0.0,,,,,,,,
5,16803,1,0.0,,,,,,,,
6,16805,0,0.0,,,,,,,,
0,16808,6,1034.91,-1784.79,1212.77,3460.08,1016.85,-1290.89,5.19,53.45,19.75
1,16822,4,-864.99,-1785.89,3.91,-3631.59,641.48,108.03,25.33,26.51,-38.82
2,16834,4,-350.95,-1258.42,96.92,-1309.2,516.36,446.17,27.25,20.56,-32.23
3,16845,0,0.0,,,,,,,,
4,16847,0,0.0,,,,,,,,
5,16849,0,0.0,,,,,,,,
6,16850,0,0.0,,,,,,,,
0,16855,4,464.72,-758.06,917.6,1768.19,852.05,-1711.43,-1.35,50.90,28.45
1,16867,4,-687.38,1496.83,-1966.43,-2961.43,1832.28,-391.85,28.27,12.84,-41.63
2,16883,4,-464.48,-252.69,387.45,-623.78,748.9,334.47,29.11,14.95,-34.11
3,16894,0,0.0,,,,,,,,
4,16897,0,0.0,,,,,,,,
5,16898,1,0.0,,,,,,,,
6,16900,0,0.0,,,,,,,,
0,16903,5,1122.31,10.62,698.49,-900.88,-521.24,-370.48,-5.2,47.99,29.70
1,16915,5,-383.67,-990.36,-554.93,1772.46,392.46,1143.8,32.32,5.92,-40.58
2,16927,5,-87.77,-128.66,-336.18,419.92,-286.87,-96.44,28.87,14.81,-34.03
3,16940,0,0.0,,,,,,,,
4,16942,0,0.0,,,,,,,,
5,16947,0,0.0,,,,,,,,
6,16949,0,0.0,,,,,,,,
0,16952,5,495.12,-83.01,490.48,-1013.79,463.87,564.58,-4.71,48.68,26.70
1,16964,4,108.76,-154.79,-488.53,1188.96,-339.36,-765.99,33.18,9.75,-39.37
2,16976,6,86.3,-104.25,-36.25,1203.0,348.51,-427.86,28.72,18.84,-32.20
3,16989,0,0.0,,,,,,,,
4,16990,0,0.0,,,,,,,,
5,16992,0,0.0,,,,,,,,
6,16994,0,0.0,,,,,,,,
0,16997,4,561.28,-470.21,567.38,-1539.31,183.11,1611.33,-0.59,51.60,21.57
1,17009,4,-349.24,-489.5,-417.85,2118.53,-1130.37,-759.89,30.76,17.04,-40.97
2,17026,4,-218.75,-413.33,-138.79,1870.12,-260.01,-970.46,26.93,26.62,-29.30
3,17038,0,0.0,,,,,,,,
4,17039,1,0.0,,,,,,,,
5,17041,0,0.0,,,,,,,,
6,17043,0,0.0,,,,,,,,
0,17046,5,307.86,-781.98,657.1,-2101.44,198.97,1708.37,6.76,53.97,13.51
1,17058,4,-534.79,-1177.25,-171.39,2672.12,-917.36,-761.72,25.34,26.67,-39.26
2,17071,5,-250.73,-958.25,-97.66,2331.54,-222.78,-1026.61,23.75,34.17,-23.43
3,17083,0,0.0,,,,,,,,
4,17085,0,0.0,,,,,,,,
5,17090,0,0.0,,,,,,,,
6,17092,0,0.0,,,,,,,,
0,17095,4,370.12,-1107.67,877.32,-2402.95,393.68,1446.53,12.02,52.28,4.16
1,17107,5,-233.64,-1668.46,86.18,2809.45,-593.87,-882.57,21.4,36.77,-33.06
2,17120,3,102.78,-1394.17,-76.05,2793.58,-97.05,-1132.2,23.75,34.17,-23.43
3,17131,0,0.0,,,,,,,,
4,17132,0,0.0,,,,,,,,
5,17134,0,0.0,,,,,,,,
6,17136,0,0.0,,,,,,,,
0,17139,4,480.59,-1503.17,942.63,-2199.71,11.6,1741.33,18.86,49.57,-5.76
1,17152,4,-66.41,-2274.41,774.41,2442.63,-1123.66,-651.86,18.03,44.82,-25.44
2,17168,4,325.81,-2148.19,415.89,2556.76,-133.06,-805.66,19.89,41.42,-14.61
3,17180,0,0.0,,,,,,,,
4,17181,0,0.0,,,,,,,,
5,17183,0,0.0,,,,,,,,
6,17185,0,0.0,,,,,,,,
0,17188,4,592.77,-2113.65,437.26,-1679.69,-576.17,1591.19,24.37,41.99,-14.54
1,17201,4,-1084.35,-1797.49,1625.73,1923.83,-1008.3,73.24,15.54,50.60,-18.76
2,17213,5,-273.44,-1962.89,811.52,1798.1,-1079.1,-885.01,16.11,46.55,-4.60
3,17225,0,0.0,,,,,,,,
4,17230,1,0.0,,,,,,,,
5,17232,0,0.0,,,,,,,,
6,17234,0,0.0,,,,,,,,
0,17238,5,-179.57,-1652.34,-87.77,-861.21,244.75,630.49,25.71,33.57,-18.12
1,17250,5,449.58,-1487.43,1926.15,795.9,-111.69,-510.86,14.69,58.72,-11.94
2,17262,5,425.17,-1563.6,1054.57,624.39,97.66,-283.81,13.27,48.74,1.82
3,17274,0,0.0,,,,,,,,
4,17275,1,0.0,,,,,,,,
5,17277,0,0.0,,,,,,,,
6,17280,0,0.0,,,,,,,,
0,17283,3,-175.54,-1689.58,-447.75,65.31,-399.17,130.62,25.71,33.57,-18.12
1,17294,5,-433.47,-1683.23,2133.42,-246.58,138.55,794.07,16.74,61.24,-7.84
2,17310,4,-392.94,-1597.66,884.89,-731.2,-37.23,140.38,11.25,49.56,7.24
3,17323,0,0.0,,,,,,,,
4,17324,0,0.0,,,,,,,,
5,17326,0,0.0,,,,,,,,
6,17327,1,0.0,,,,,,,,
0,17331,4,990.48,-644.41,1487.92,1172.49,-432.13,-1304.32,24.65,32.31,-17.66
1,17343,4,-381.35,-1970.09,-800.05,-1819.46,623.17,1468.51,24.08,59.50,-14.10
2,17355,5,-618.9,-1349.12,-733.52,-469.36,-161.13,-149.54,12.81,49.19,4.37
3,17368,0,0.0,,,,,,,,
4,17373,0,0.0,,,,,,,,
5,17375,0,0.0,,,,,,,,
6,17377,0,0.0,,,,,,,,
0,17380,4,-37.84,-2178.71,1180.66,1411.13,-678.71,-175.17,20.24,36.83,-15.66
1,17392,5,-89.48,-617.31,534.42,-1086.43,224.0,617.68,27.27,56.63,-20.69
2,17404,6,-5.25,-1393.68,114.5,-1269.53,76.29,252.69,13.26,49.23,1.10
3,17417,0,0.0,,,,,,,,
4,17418,0,0.0,,,,,,,,
5,17420,0,0.0,,,,,,,,
6,17422,0,0.0,,,,,,,,
0,17425,4,314.33,-732.91,815.92,610.35,-248.41,-264.89,18.68,38.26,-12.40
1,17437,3,33.2,-878.3,205.93,-194.7,62.87,259.4,27.27,56.63,-20.69
2,17453,4,1.83,-689.09,42.36,-806.27,75.07,181.88,13.07,49.66,-3.85
3,17464,0,0.0,,,,,,,,
4,17466,0,0.0,,,,,,,,
5,17467,0,0.0,,,,,,,,
6,17469,0,0.0,,,,,,,,
0,17472,5,252.2,-687.26,817.02,209.96,-146.48,-73.85,17.8,38.29,-10.45
1,17484,5,-37.11,-959.72,194.82,-41.5,21.97,32.96,29.55,55.79,-21.90
2,17497,4,-85.08,-1169.92,-31.37,-541.38,167.85,14.04,13.42,49.69,-6.60
3,17509,0,0.0,,,,,,,,
4,17510,0,0.09775199999999999,,,,,,,,
5,17516,0,0.0,,,,,,,,
6,17517,1,0.0,,,,,,,,
0,17521,4,300.78,-545.9,784.91,119.02,1.83,-8.54,17.36,39.15,-10.12
1,17533,5,-138.55,-1002.2,172.36,-1.22,25.02,-17.09,28.93,55.07,-22.74
2,17546,4,-300.9,-841.31,54.81,-473.63,-23.19,1.83,12.88,48.95,-9.91
3,17557,0,0.0,,,,,,,,
4,17559,0,0.195695,,,,,,,,
5,17560,1,0.0,,,,,,,,
6,17562,0,0.0,,,,,,,,
0,17565,5,391.11,-607.3,711.18,45.17,-152.59,-90.33,17.55,39.84,-9.01
1,17577,6,-146.85,-961.67,182.13,51.27,73.85,130.62,28.7,54.98,-22.96
2,17594,4,-223.14,-1008.18,34.67,-286.25,-9.77,19.53,12.07,49.39,-10.57
3,17606,0,0.0,,,,,,,,
4,17607,0,0.195695,,,,,,,,
5,17609,0,0.0,,,,,,,,
6,17611,0,0.0,,,,,,,,
0,17614,4,297.12,-568.24,738.77,-14.04,-226.44,-120.85,14.64,40.83,-10.31
1,17627,4,-110.47,-1002.81,159.79,48.83,70.19,147.71,29.52,54.39,-24.19
2,17639,4,-154.79,-996.34,57.37,-244.14,-271.0,-29.3,12.37,48.69,-12.35
3,17651,0,0.0,,,,,,,,
4,17652,0,0.09775199999999999,,,,,,,,
5,17654,0,0.0,,,,,,,,
6,17668,0,0.0,,,,,,,,
0,17672,4,245.12,-566.77,759.52,56.76,-43.95,-9.16,13.12,41.46,-9.81
1,17683,5,-102.17,-985.72,178.71,42.11,37.23,20.75,30.04,54.66,-23.34
2,17695,5,-314.7,-988.89,4.76,-296.63,87.89,36.01,12.63,47.96,-13.28
3,17708,0,0.0,,,,,,,,
4,17709,1,0.195695,,,,,,,,
5,17711,0,0.0,,,,,,,,
6,17713,0,0.0,,,,,,,,
0,17716,5,274.41,-565.43,747.68,93.38,-38.45,-40.28,11.67,42.85,-9.95
1,17728,4,-69.58,-991.21,183.59,7.93,53.71,72.02,30.37,54.39,-22.69
2,17740,4,-147.71,-1011.72,46.63,-355.83,185.55,88.5,13.15,46.92,-15.33
3,17756,0,0.0,,,,,,,,
4,17758,0,0.29383000000000004,,,,,,,,
5,17760,0,0.0,,,,,,,,
6,17761,1,0.0,,,,,,,,
0,17765,4,227.66,-599.85,737.18,113.53,-32.35,-70.19,10.33,43.13,-10.35
1,17777,4,-53.59,-956.91,195.56,11.6,42.11,29.3,30.44,54.41,-24.45
2,17788,6,-182.74,-983.15,89.11,-451.66,-9.16,89.72,13.51,46.11,-16.21
3,17801,0,0.0,,,,,,,,
4,17803,0,0.29383000000000004,,,,,,,,
5,17804,1,0.0,,,,,,,,
6,17806,0,0.0,,,,,,,,
0,17809,5,259.77,-606.93,730.59,122.07,-64.09,-120.85,10.05,43.44,-9.53
1,17825,5,-86.67,-928.22,189.33,-23.8,81.18,84.23,30.29,54.14,-24.19
2,17838,4,-178.22,-919.07,136.96,-494.38,219.12,106.2,14.1,44.60,-19.38
3,17850,0,0.0,,,,,,,,
4,17851,0,0.29383000000000004,,,,,,,,
5,17853,0,0.0,,,,,,,,
6,17855,0,0.0,,,,,,,,
0,17858,4,179.2,-603.15,754.27,194.7,-21.97,-130.62,9.48,44.62,-8.67
1,17870,4,-6.1,-1052.25,195.92,-83.62,-54.32,30.52,30.68,53.09,-25.18
2,17883,4,-151.25,-1103.52,126.46,-615.84,162.35,177.61,15.52,42.64,-20.24
3,17898,0,0.0,,,,,,,,
4,17900,0,0.195695,,,,,,,,
5,17902,0,0.0,,,,,,,,
6,17903,1,0.0,,,,,,,,
0,17907,4,276.12,-585.57,794.19,366.21,47.61,-179.44,8.62,45.08,-8.76
1,17920,4,-35.52,-1303.34,234.99,-415.04,-49.44,25.02,30.21,52.27,-25.28
2,17932,4,-273.8,-1188.48,193.73,-918.58,122.07,320.43,17.7,39.61,-22.89
3,17943,0,0.0,,,,,,,,
4,17945,0,0.0,,,,,,,,
5,17946,1,0.195695,,,,,,,,
6,17948,0,0.0,,,,,,,,
0,17952,4,225.71,-618.04,890.87,764.77,133.06,-258.18,7.62,45.61,-6.59
1,17968,5,-222.41,-1473.39,257.93,-640.87,-17.7,62.87,29.09,49.88,-28.25
2,17980,4,-232.06,-1439.09,213.38,-892.94,460.21,432.74,17.7,39.61,-22.89
3,17991,0,0.0,,,,,,,,
4,17993,0,0.0,,,,,,,,
5,17994,0,0.09775199999999999,,,,,,,,
6,17996,0,0.0,,,,,,,,
0,17999,5,301.64,-589.48,1067.75,1431.88,275.88,-264.28,6.85,48.44,-4.19
1,18012,5,-344.48,-2364.75,0.24,-1342.16,55.54,-29.91,28.12,44.23,-31.85
2,18024,5,-155.03,-2098.63,-321.78,-1213.99,678.71,683.59,20.35,35.86,-25.38
3,18040,0,0.0,,,,,,,,
4,18042,0,0.0,,,,,,,,
5,18043,0,0.0,,,,,,,,
6,18045,0,0.0,,,,,,,,
0,18049,5,245.61,-576.05,1213.62,3236.08,681.76,-364.38,6.32,50.96,3.89
1,18061,5,-418.33,-2774.05,-298.71,-3350.83,599.37,-224.0,27.58,33.15,-36.79
2,18073,5,-175.05,-1873.05,-437.38,-1586.3,691.53,676.88,24.78,29.64,-28.34
3,18085,0,0.0,,,,,,,,
4,18087,0,0.0,,,,,,,,
5,18088,0,0.0,,,,,,,,
6,18091,0,0.0,,,,,,,,
0,18094,5,1094.73,-1993.77,1198.85,3697.51,806.27,-1201.78,4.04,52.75,16.70
1,18110,5,-717.41,-2025.63,35.28,-3718.26,690.92,525.51,29.92,15.41,-41.71
2,18122,5,-219.48,-1003.66,-40.16,-819.7,70.19,506.59,28.27,21.66,-30.25
3,18135,0,0.0,,,,,,,,
4,18136,1,0.0,,,,,,,,
5,18138,0,0.0,,,,,,,,
6,18140,0,0.0,,,,,,,,
0,18143,5,259.28,-64.82,656.62,1885.38,1141.97,-1405.64,-2.09,48.78,27.88
1,18155,5,-584.84,1473.88,-320.92,-2526.25,1984.86,-861.82,35.05,3.37,-39.16
2,18167,5,-350.46,-119.63,597.53,-543.21,875.85,323.49,29.58,17.03,-30.05
3,18184,0,0.0,,,,,,,,
4,18185,0,0.0,,,,,,,,
5,18187,0,0.0,,,,,,,,
6,18189,0,0.0,,,,,,,,
0,18192,4,704.1,-16.48,593.87,-1469.12,-968.02,-49.44,-7.08,44.97,30.14
1,18204,4,-838.62,-1282.84,-674.19,2462.16,391.85,949.1,34.62,7.53,-37.34
2,18216,5,-142.09,169.8,-280.27,780.64,-407.71,-254.52,31.43,14.12,-29.86
3,18229,0,0.0,,,,,,,,
4,18230,0,0.0,,,,,,,,
5,18232,0,0.0,,,,,,,,
6,18234,0,0.0,,,,,,,,
0,18237,4,161.99,-178.83,424.07,-1597.29,171.51,419.31,-5.93,46.52,27.21
1,18253,3,175.9,-12.82,-422.61,1892.7,-224.61,-685.42,34.62,7.53,-37.34
2,18265,4,-36.38,-263.55,71.41,1405.03,34.79,-643.92,29.82,17.96,-29.39
3,18276,0,0.0,,,,,,,,
4,18278,0,0.0,,,,,,,,
5,18280,0,0.0,,,,,,,,
6,18281,0,0.0,,,,,,,,
0,18285,4,464.11,-546.39,477.91,-2429.2,-406.49,1315.92,-3.3,48.84,21.47
1,18297,4,-479.86,-1204.59,-360.6,3073.12,-787.35,-296.02,34.38,14.44,-37.52
2,18310,4,-188.48,-500.37,-296.14,2138.67,-424.19,-892.33,27.76,22.97,-27.94
3,18326,0,0.0,,,,,,,,
4,18328,0,0.0,,,,,,,,
5,18330,0,0.0,,,,,,,,
6,18331,0,0.0,,,,,,,,
0,18335,4,230.22,-729.0,643.07,-2211.3,439.45,1481.32,2.2,50.70,12.87
1,18348,4,-314.09,-1199.34,-18.8,2522.58,-578.0,-919.19,31.57,23.84,-34.68
2,18360,4,-221.8,-962.4,-62.87,2568.36,-64.09,-894.78,24.85,31.07,-22.53
3,18371,0,0.0,,,,,,,,
4,18373,0,0.0,,,,,,,,
5,18375,0,0.0,,,,,,,,
6,18376,0,0.0,,,,,,,,
0,18380,4,367.92,-1383.42,988.53,-2471.92,410.77,1280.52,7.45,49.38,4.26
1,18396,5,-21.73,-1917.24,384.77,2764.89,-354.0,-826.42,27.75,32.87,-29.57
2,18408,5,101.07,-1715.94,46.14,2788.7,-180.05,-1022.34,21.57,37.68,-14.55
3,18420,0,0.0,,,,,,,,
4,18422,0,0.0,,,,,,,,
5,18423,1,0.0,,,,,,,,
6,18425,0,0.0,,,,,,,,
0,18428,6,414.31,-1909.42,870.73,-2285.77,79.35,1516.72,12.55,45.02,-4.70
1,18441,5,29.66,-2403.81,1223.02,2542.11,-817.26,-729.98,24.48,41.02,-24.34
2,18453,5,67.5,-2345.95,508.91,2453.0,-382.08,-728.76,17.92,42.35,-4.72
3,18469,0,0.0,,,,,,,,
4,18471,0,0.0,,,,,,,,
5,18472,0,0.0,,,,,,,,
6,18475,0,0.0,,,,,,,,
0,18478,5,631.71,-2116.45,200.2,-1468.51,-78.12,1360.47,17.87,39.59,-9.70
1,18490,5,-743.29,-1487.92,1941.77,1519.78,-758.67,-484.01,20.53,45.41,-15.99
2,18502,5,-240.6,-1918.09,1059.08,1472.17,-1035.16,-922.24,14.39,43.02,2.88
3,18514,0,0.0,,,,,,,,
4,18516,0,0.0,,,,,,,,
5,18518,1,0.0,,,,,,,,
6,18520,0,0.0,,,,,,,,
0,18523,5,-519.9,-1957.76,-534.3,-446.78,1043.7,1349.49,21.78,36.28,-13.10
1,18539,5,1052.73,-1202.27,2416.75,321.04,-865.48,-1166.99,16.82,47.09,-11.44
2,18552,4,318.6,-1430.3,1092.29,-46.39,203.86,-49.44,12.45,43.37,5.79
3,18564,0,0.0,,,,,,,,
4,18566,0,0.0,,,,,,,,
5,18567,0,0.0,,,,,,,,
6,18569,0,0.0,,,,,,,,
0,18572,5,-241.58,-1449.71,-339.23,698.85,-942.38,-53.71,22.78,36.13,-11.98
1,18584,5,-1258.67,-1703.49,1664.43,-701.9,269.78,704.35,14.23,47.40,-10.21
2,18597,4,-320.19,-1200.81,247.8,-1126.1,-480.96,302.12,13.35,43.90,1.26
3,18613,0,0.0,,,,,,,,
4,18615,0,0.0,,,,,,,,
5,18616,0,0.0,,,,,,,,
6,18618,0,0.0,,,,,,,,
0,18621,5,781.25,416.99,1276.98,668.95,-728.15,-891.72,18.53,40.15,-9.78
1,18633,5,-275.27,-1467.65,-210.69,-1917.11,560.91,1638.18,19.31,46.30,-14.65
2,18646,5,-299.32,-1459.23,31.98,-662.23,-646.36,-104.98,13.13,43.36,-0.66
3,18658,0,0.0,,,,,,,,
4,18660,0,0.0,,,,,,,,
5,18661,1,0.0,,,,,,,,
6,18663,0,0.0,,,,,,,,
0,18666,5,227.54,-1674.93,1041.5,1333.62,-576.78,-403.44,16.77,41.61,-7.34
1,18682,6,-10.86,-619.51,448.24,-1084.59,277.71,343.02,24.19,42.72,-21.73
2,18695,5,-53.22,-1411.99,169.56,-972.9,-98.88,-61.04,13.43,43.25,-5.58
3,18707,0,0.0,,,,,,,,
4,18709,0,0.0,,,,,,,,
5,18710,0,0.0,,,,,,,,
6,18712,0,0.0,,,,,,,,
0,18715,5,-95.7,-923.83,991.7,504.15,-229.49,-145.26,16.63,41.41,-4.66
1,18727,6,13.55,-947.39,197.51,-86.06,21.36,9.77,24.94,41.42,-23.32
2,18740,3,-104.13,-854.61,-94.6,-742.19,-136.11,-61.65,13.43,43.25,-5.58
3,18754,1,0.195695,,,,,,,,
4,18756,0,0.0,,,,,,,,
5,18758,0,0.0,,,,,,,,
6,18759,1,0.0,,,,,,,,
0,18763,4,218.99,-592.9,779.79,144.65,122.07,50.05,16.49,41.22,-4.10
1,18776,4,-146.48,-1032.35,157.96,34.18,-15.26,-9.77,25.02,41.13,-24.18
2,18788,4,-321.04,-952.03,-135.74,-686.65,335.08,-17.09,12.59,43.37,-7.85
3,18799,0,0.09775199999999999,,,,,,,,
4,18801,0,0.09775199999999999,,,,,,,,
5,18803,0,0.0,,,,,,,,
6,18804,1,0.0,,,,,,,,
0,18808,3,452.27,-589.97,693.24,159.91,39.67,-33.57,16.49,41.22,-4.10
1,18823,5,-161.25,-916.87,186.52,9.16,45.78,54.32,24.99,41.30,-23.84
2,18835,4,-306.4,-871.22,30.15,-387.57,26.86,3.05,12.0,43.20,-10.38
3,18847,0,0.0,,,,,,,,
4,18848,0,0.09775199999999999,,,,,,,,
5,18850,0,0.0,,,,,,,,
6,18852,0,0.0,,,,,,,,
0,18855,5,227.78,-594.36,798.34,51.88,-190.43,-90.33,16.55,41.55,-4.57
1,18868,4,-21.36,-1013.18,168.46,72.02,48.83,120.24,25.96,40.92,-24.05
2,18880,4,14.04,-1112.3,-21.36,-238.65,171.51,-37.23,11.6,43.57,-13.43
3,18895,0,0.0,,,,,,,,
4,18897,0,0.09775199999999999,,,,,,,,
5,18898,1,0.0,,,,,,,,
6,18900,0,0.0,,,,,,,,
0,18904,5,222.78,-582.28,763.79,116.58,43.33,12.21,15.43,43.18,-3.83
1,18916,5,-88.62,-972.66,167.97,27.47,23.19,-51.88,25.17,40.67,-24.37
2,18928,4,-330.93,-958.74,-17.33,-245.36,-0.61,-46.39,11.95,42.57,-13.84
3,18940,0,0.0,,,,,,,,
4,18941,1,0.195695,,,,,,,,
5,18944,0,0.0,,,,,,,,
6,18946,0,0.0,,,,,,,,
0,18949,5,282.96,-594.85,733.15,148.93,122.68,6.1,14.59,43.87,-3.25
1,18961,3,-125.98,-987.18,166.14,62.26,29.91,-22.58,25.17,40.67,-24.37
2,18976,4,-264.04,-1000.0,-85.57,-307.62,307.62,49.44,11.79,42.32,-15.17
3,18988,0,0.0,,,,,,,,
4,18990,0,0.29383000000000004,,,,,,,,
5,18992,0,0.0,,,,,,,,
6,18993,0,0.0,,,,,,,,
0,18997,4,322.75,-579.47,710.69,134.28,15.26,-81.18,14.43,44.67,-3.60
1,19009,4,-91.8,-999.76,169.68,-11.6,57.98,48.22,24.46,41.11,-23.51
2,19020,5,-143.8,-974.24,56.4,-396.73,174.56,73.24,12.43,41.49,-14.67
3,19033,0,0.0,,,,,,,,
4,19038,1,0.29383000000000004,,,,,,,,
5,19040,0,0.0,,,,,,,,
6,19042,0,0.0,,,,,,,,
0,19045,5,267.94,-635.74,716.67,95.83,-45.17,-87.89,13.83,44.73,-3.00
1,19057,4,-89.97,-965.21,188.11,1.83,89.72,61.65,25.4,40.32,-24.01
2,19069,5,-189.7,-970.83,101.56,-402.22,177.61,67.14,13.02,40.58,-16.92
3,19081,0,0.0,,,,,,,,
4,19083,0,0.39215700000000003,,,,,,,,
5,19085,0,0.0,,,,,,,,
6,19086,1,0.0,,,,,,,,
0,19090,4,260.38,-629.52,729.37,46.39,-69.58,-71.41,12.46,45.70,-2.76
1,19102,4,-102.78,-1063.6,174.44,17.09,58.59,60.42,25.59,41.06,-25.56
2,19118,5,-237.92,-1078.74,75.93,-465.09,101.32,105.59,13.54,40.26,-19.01
3,19130,0,0.0,,,,,,,,
4,19132,0,0.49067700000000003,,,,,,,,
5,19133,0,0.0,,,,,,,,
6,19135,0,0.0,,,,,,,,
0,19138,5,292.36,-595.95,732.91,132.45,-87.28,-137.94,11.38,47.18,-2.67
1,19150,5,-79.35,-1035.52,194.46,-126.95,-17.7,44.56,26.07,40.08,-25.00
2,19163,5,-174.8,-1060.18,142.58,-591.43,45.78,173.95,15.41,37.48,-20.06
3,19175,0,0.0,,,,,,,,
4,19176,1,0.195695,,,,,,,,
5,19178,0,0.0,,,,,,,,
6,19184,0,0.0,,,,,,,,
0,19187,5,239.62,-582.76,795.65,328.98,36.01,-112.3,9.41,48.40,-2.19
1,19200,4,-97.9,-1362.3,209.84,-299.68,-17.09,-103.15,26.06,39.69,-26.40
2,19212,4,-300.54,-1194.09,187.5,-728.15,26.86,280.76,16.75,35.44,-23.57
3,19224,0,0.0,,,,,,,,
4,19225,0,0.0,,,,,,,,
5,19227,0,0.09775199999999999,,,,,,,,
6,19229,0,0.0,,,,,,,,
0,19232,4,281.74,-625.73,836.91,762.33,204.47,-200.2,9.19,48.89,-1.20
1,19245,4,-160.77,-1349.98,250.49,-592.04,-26.25,-51.27,25.27,38.61,-27.56
2,19261,4,-181.52,-1293.82,166.02,-835.57,339.36,391.24,18.9,32.35,-25.63
3,19272,1,0.0,,,,,,,,
4,19274,0,0.0,,,,,,,,
5,19276,0,0.09775199999999999,,,,,,,,
6,19278,0,0.0,,,,,,,,
0,19281,5,274.29,-641.24,931.88,1267.09,196.53,-201.42,8.36,50.40,2.87
1,19294,4,-308.96,-1963.62,137.94,-1150.51,35.4,-68.97,25.06,36.21,-30.25
2,19306,4,-314.7,-1803.83,-79.47,-1013.79,421.14,531.62,20.81,28.52,-27.50
3,19318,0,0.0,,,,,,,,
4,19319,0,0.0,,,,,,,,
5,19321,0,0.0,,,,,,,,
6,19326,0,0.0,,,,,,,,
0,19345,5,437.5,-821.53,1077.64,3170.17,764.77,-460.21,8.19,51.84,7.63
1,19360,4,-429.93,-2536.62,-16.48,-3376.46,631.71,-105.59,24.94,31.13,-33.35
2,19373,4,-331.42,-1796.26,-233.89,-1569.21,724.49,477.29,25.12,23.17,-30.36
3,19384,0,0.0,,,,,,,,
4,19386,0,0.0,,,,,,,,
5,19388,0,0.0,,,,,,,,
6,19389,0,0.0,,,,,,,,
0,19393,4,790.41,-1916.63,1172.24,3187.87,900.88,-1606.45,7.02,53.15,18.91
1,19405,4,-893.92,-1689.21,-75.32,-3492.43,847.78,3.66,27.06,20.57,-39.62
2,19420,5,-186.77,-1114.38,85.45,-1024.17,172.12,280.15,28.04,17.43,-30.15
3,19432,0,0.0,,,,,,,,
4,19434,0,0.0,,,,,,,,
5,19435,0,0.0,,,,,,,,
6,19437,0,0.0,,,,,,,,
0,19440,5,564.45,-1610.6,788.57,1216.43,1644.9,-1276.86,0.82,49.69,29.22
1,19452,6,345.95,1937.5,-617.8,-1127.32,1589.36,-885.01,30.08,6.40,-40.31
2,19465,5,-210.08,-344.24,-57.74,-711.06,844.12,175.78,28.34,14.00,-30.92
3,19477,0,0.0,,,,,,,,
4,19479,0,0.0,,,,,,,,
5,19480,0,0.0,,,,,,,,
6,19486,0,0.0,,,,,,,,
0,19489,5,-130.86,191.77,562.01,-1589.36,-1010.74,-891.72,-5.57,46.18,30.77
1,19502,5,-218.51,-324.1,-500.37,1300.05,903.93,903.93,34.05,6.01,-37.84
2,19514,5,16.85,-51.27,-208.74,750.73,42.72,-120.24,28.2,14.04,-29.83
3,19526,0,0.0,,,,,,,,
4,19527,1,0.0,,,,,,,,
5,19529,0,0.0,,,,,,,,
6,19531,0,0.0,,,,,,,,
0,19534,4,692.75,-35.52,356.2,-1323.85,571.9,220.34,-6.31,45.36,27.69
1,19547,4,462.16,-391.97,-391.24,1457.52,-204.47,-506.59,36.51,10.40,-35.49
2,19563,4,392.46,-232.3,-68.12,1496.58,75.07,-508.42,27.98,18.43,-28.19
3,19574,1,0.0,,,,,,,,
4,19576,0,0.0,,,,,,,,
5,19578,0,0.0,,,,,,,,
6,19579,1,0.0,,,,,,,,
0,19584,4,609.01,-660.64,627.32,-1539.31,-13.43,1784.06,-4.08,46.89,22.40
1,19596,4,-334.35,-537.35,-405.15,2280.88,-1168.82,-605.47,34.05,17.61,-35.82
2,19608,4,-226.44,-426.27,-118.29,2122.8,-686.04,-937.5,25.21,25.55,-25.27
3,19620,0,0.0,,,,,,,,
4,19621,0,0.0,,,,,,,,
5,19623,0,0.0,,,,,,,,
6,19629,1,0.0,,,,,,,,
0,19633,4,-208.74,-914.18,792.72,-2263.79,217.29,1670.53,2.39,49.49,15.17
1,19645,4,-470.46,-1223.39,-52.49,2777.1,-510.86,-1205.44,28.52,26.42,-34.31
2,19657,4,-321.66,-995.48,-78.0,2586.67,-356.45,-955.81,20.45,32.71,-19.75
3,19670,0,0.0,,,,,,,,
4,19671,0,0.0,,,,,,,,
5,19673,0,0.0,,,,,,,,
6,19675,0,0.0,,,,,,,,
0,19678,4,422.85,-1317.75,880.74,-2618.41,343.63,1303.1,8.84,48.86,7.18
1,19690,4,139.53,-1948.73,247.56,2926.03,-463.87,-742.8,24.45,35.80,-27.92
2,19706,4,143.68,-1692.14,7.45,2751.46,-307.62,-816.04,16.93,38.32,-11.29
3,19718,1,0.0,,,,,,,,
4,19720,0,0.0,,,,,,,,
5,19722,0,0.0,,,,,,,,
6,19723,1,0.0,,,,,,,,
0,19727,4,552.73,-1905.64,918.33,-2199.71,-50.66,1781.62,14.42,44.68,-1.12
1,19739,4,-85.82,-2231.2,1058.84,2512.82,-1202.39,-516.97,20.53,42.44,-19.24
2,19751,4,-15.5,-2193.97,447.88,2413.94,-649.41,-639.65,16.93,38.32,-11.29
3,19763,0,0.0,,,,,,,,
4,19764,0,0.0,,,,,,,,
5,19766,0,0.0,,,,,,,,
6,19771,1,0.0,,,,,,,,
0,19775,4,438.48,-2022.22,290.28,-1725.46,-373.54,1325.68,18.62,39.93,-7.78
1,19787,4,-899.17,-1841.31,1859.13,1788.33,-563.35,-390.63,17.41,44.53,-11.06
2,19800,5,-280.76,-1907.23,909.06,1541.14,-1109.62,-891.72,13.21,41.16,-1.93
3,19812,0,0.0,,,,,,,,
4,19814,0,0.0,,,,,,,,
5,19815,0,0.0,,,,,,,,
6,19817,0,0.0,,,,,,,,
0,19820,5,-242.68,-1851.81,-530.52,-656.13,661.62,955.81,21.95,35.14,-10.33
1,19832,5,1132.81,-1283.08,2284.55,467.53,-541.38,-676.27,14.55,45.20,-8.57
2,19849,5,142.46,-1458.5,992.68,-54.32,17.7,20.75,10.34,40.91,3.71
3,19861,0,0.0,,,,,,,,
4,19862,0,0.0,,,,,,,,
5,19864,0,0.0,,,,,,,,
6,19866,0,0.0,,,,,,,,
0,19869,4,-306.15,-1425.66,-69.46,620.73,-527.95,-151.98,23.0,33.95,-10.61
1,19881,6,-653.81,-1023.56,1238.53,-675.66,81.18,385.74,15.2,44.74,-11.71
2,19894,5,-259.89,-1236.82,428.34,-1040.65,-119.63,253.91,9.5,41.75,3.34
3,19906,0,0.0,,,,,,,,
4,19907,1,0.0,,,,,,,,
5,19909,0,0.0,,,,,,,,
6,19915,0,0.0,,,,,,,,
0,19918,4,1033.2,67.5,1478.15,1127.32,-380.86,-511.47,20.94,36.93,-8.91
1,19931,4,-373.05,-1696.04,-557.86,-1613.77,8.54,1018.68,19.08,43.58,-16.75
2,19943,4,-534.55,-1194.58,-354.25,-640.26,-623.17,-93.38,10.34,41.85,0.35
3,19955,0,0.0,,,,,,,,
4,19956,0,0.0,,,,,,,,
5,19958,0,0.0,,,,,,,,
6,19960,0,0.0,,,,,,,,
0,19963,5,-140.75,-1462.65,1088.5,1544.19,-380.86,-263.06,18.47,40.27,-6.07
1,19976,4,-106.08,-743.77,341.19,-1193.85,270.39,223.39,19.08,43.58,-16.75
2,19996,4,-42.11,-1569.58,405.27,-1268.92,460.21,39.67,10.88,41.66,-2.77
3,20008,0,0.0,,,,,,,,
4,20009,0,0.0,,,,,,,,
5,20012,0,0.0,,,,,,,,
6,20014,0,0.0,,,,,,,,
0,20017,4,-144.04,-885.74,1032.35,581.05,-241.7,-171.51,19.26,40.54,-3.92
1,20029,4,4.39,-879.27,197.63,-241.7,48.22,-1.83,21.5,39.97,-23.40
2,20041,4,-204.47,-775.63,-29.79,-896.61,-388.79,10.99,10.62,41.86,-6.70
3,20052,0,0.0,,,,,,,,
4,20055,0,0.0,,,,,,,,
5,20057,0,0.0,,,,,,,,
6,20062,0,0.0,,,,,,,,
0,20065,5,258.67,-605.47,782.1,198.97,-21.36,-68.97,19.32,39.72,-2.32
1,20077,4,-117.55,-1071.53,158.2,-34.79,28.69,-48.22,21.5,39.97,-23.40
2,20088,4,-154.3,-994.63,27.22,-674.44,266.11,-47.61,9.89,41.17,-10.40
3,20101,0,0.0,,,,,,,,
4,20102,0,0.0,,,,,,,,
5,20104,0,0.0,,,,,,,,
6,20106,0,0.0,,,,,,,,
0,20109,4,221.56,-645.26,778.44,165.41,7.32,-24.41,18.86,40.54,-1.83
1,20121,4,-85.94,-938.11,196.53,-18.31,28.08,-31.13,20.94,39.79,-23.39
2,20136,6,-193.24,-946.66,52.61,-402.83,224.61,-31.13,9.3,40.52,-12.07
3,20149,0,0.0,,,,,,,,
4,20151,0,0.195695,,,,,,,,
5,20152,1,0.0,,,,,,,,
6,20154,0,0.0,,,,,,,,
0,20157,5,248.41,-592.9,778.93,67.14,-7.32,23.8,17.3,42.22,-1.04
1,20169,5,-66.65,-1051.03,174.93,27.47,13.43,-35.4,21.52,39.99,-24.00
2,20182,4,-174.8,-1063.48,28.81,-323.49,99.49,-9.77,9.03,40.67,-14.48
3,20194,0,0.0,,,,,,,,
4,20195,0,0.29383000000000004,,,,,,,,
5,20197,0,0.0,,,,,,,,
6,20199,0,0.0,,,,,,,,
0,20202,4,281.74,-597.66,743.04,90.33,20.75,50.05,15.77,43.79,-0.81
1,20218,4,-83.74,-973.51,186.04,19.53,25.63,-47.0,21.64,40.11,-23.40
2,20230,5,-220.7,-981.45,78.37,-232.54,173.95,18.92,9.58,40.01,-15.69
3,20242,0,0.0,,,,,,,,
4,20244,0,0.29383000000000004,,,,,,,,
5,20245,0,0.0,,,,,,,,
6,20247,0,0.0,,,,,,,,
0,20250,5,282.84,-596.8,737.3,128.78,20.75,28.69,15.03,44.27,-1.34
1,20262,6,-105.83,-971.92,185.42,4.27,95.83,-14.65,21.31,39.88,-24.38
2,20275,4,-189.7,-988.28,113.16,-217.9,-20.14,-10.38,10.25,39.29,-15.89
3,20290,1,0.0,,,,,,,,
4,20292,0,0.195695,,,,,,,,
5,20294,0,0.0,,,,,,,,
6,20296,0,0.0,,,,,,,,
0,20299,4,303.83,-590.09,708.62,144.65,35.4,1.83,14.88,45.47,-0.89
1,20312,4,-115.72,-995.12,192.5,-1.83,49.44,-19.53,21.55,39.26,-23.82
2,20323,5,-213.01,-1006.47,69.95,-258.18,-1.83,0.0,10.24,38.29,-16.31
3,20335,0,0.0,,,,,,,,
4,20337,0,0.09775199999999999,,,,,,,,
5,20338,1,0.0,,,,,,,,
6,20340,0,0.0,,,,,,,,
0,20343,5,298.83,-595.7,696.66,176.39,-18.92,-65.31,14.37,45.53,0.38
1,20360,4,-161.74,-986.69,202.51,-61.65,65.92,53.71,22.22,39.07,-24.45
2,20372,4,-242.8,-962.77,100.1,-385.74,-83.62,20.75,10.4,36.88,-17.86
3,20383,1,0.0,,,,,,,,
4,20385,0,0.0,,,,,,,,
5,20387,0,0.0,,,,,,,,
6,20388,1,0.0,,,,,,,,
0,20392,5,232.06,-646.73,703.0,173.34,-78.12,-150.15,13.07,46.22,0.34
1,20405,4,-51.39,-1023.32,232.18,-85.45,33.57,113.53,22.27,38.75,-26.06
2,20417,4,-159.42,-1078.86,122.44,-485.84,159.91,80.57,10.75,35.90,-19.43
3,20432,0,0.0,,,,,,,,
4,20434,0,0.0,,,,,,,,
5,20435,0,0.09775199999999999,,,,,,,,
6,20438,0,0.0,,,,,,,,
0,20441,5,186.04,-621.46,770.26,282.59,35.4,-133.67,12.87,46.28,1.01
1,20453,5,-22.83,-1178.83,232.54,-236.21,-39.06,-7.32,21.9,38.59,-25.60
2,20465,5,-118.04,-1142.7,110.72,-681.15,136.72,173.95,11.68,33.97,-21.83
3,20477,0,0.0,,,,,,,,
4,20478,2,0.0,,,,,,,,
5,20481,0,0.195695,,,,,,,,
6,20483,0,0.0,,,,,,,,
0,20486,4,242.43,-633.18,776.0,508.42,128.17,-148.32,12.87,46.28,1.01
1,20501,4,-57.25,-1348.02,275.39,-427.25,-103.76,-90.94,21.92,36.83,-28.38
2,20513,4,-371.22,-1277.47,177.12,-889.89,-47.0,305.79,13.26,31.15,-23.84
3,20526,0,0.0,,,,,,,,
4,20527,0,0.0,,,,,,,,
5,20529,0,0.29383000000000004,,,,,,,,
6,20531,0,0.0,,,,,,,,
0,20534,4,318.48,-667.72,849.0,986.33,61.65,-249.02,12.21,47.86,2.17
1,20546,4,-340.09,-1648.56,235.35,-755.62,-2.44,50.05,21.18,34.90,-30.73
2,20558,3,-422.36,-1665.41,75.68,-1136.47,399.78,441.89,13.26,31.15,-23.84
3,20573,0,0.0,,,,,,,,
4,20575,0,0.0,,,,,,,,
5,20577,0,0.0,,,,,,,,
6,20578,0,0.0,,,,,,,,
0,20582,4,492.8,-572.02,1198.0,1929.32,308.84,-319.21,11.52,49.76,4.82
1,20594,4,-703.25,-2807.25,-160.16,-2086.18,438.84,-81.18,21.67,30.38,-33.61
2,20606,5,-272.22,-2195.56,-518.68,-1545.41,979.61,618.29,15.87,26.51,-27.33
3,20618,0,0.0,,,,,,,,
4,20620,0,0.0,,,,,,,,
5,20622,0,0.0,,,,,,,,
6,20623,0,0.0,,,,,,,,
0,20627,4,566.65,-1409.55,1180.3,3740.23,1068.12,-814.82,10.8,51.05,13.38
1,20643,4,-316.41,-2297.73,-177.12,-3964.84,854.49,132.45,24.69,17.80,-38.34
2,20656,4,-286.01,-1218.14,-281.98,-1485.6,1030.88,351.56,19.41,21.15,-30.55
3,20667,1,0.0,,,,,,,,
4,20669,0,0.0,,,,,,,,
5,20671,0,0.0,,,,,,,,
6,20672,0,0.0,,,,,,,,
0,20676,4,792.11,-1514.77,1160.52,2596.44,653.08,-1891.48,7.71,50.06,24.58
1,20688,4,-1179.81,-644.41,-983.4,-3562.62,1068.12,79.96,27.27,3.13,-39.60
2,20701,4,-313.6,-714.6,392.09,-675.05,35.4,405.88,24.02,15.80,-31.13
3,20716,0,0.0,,,,,,,,
4,20718,0,0.0,,,,,,,,
5,20720,0,0.0,,,,,,,,
6,20721,0,0.0,,,,,,,,
0,20725,4,2011.23,-1920.53,1290.28,378.42,1758.42,-747.68,0.93,45.52,35.24
1,20738,3,921.26,594.97,-972.41,1455.69,-454.71,-316.77,27.27,3.13,-39.60
2,20749,4,369.87,159.3,-284.18,-136.11,371.09,-159.3,24.9,12.29,-31.49
3,20760,0,0.0,,,,,,,,
4,20762,0,0.0,,,,,,,,
5,20764,0,0.0,,,,,,,,
6,20765,0,0.0,,,,,,,,
0,20769,4,-61.04,180.3,493.16,-1625.98,-773.32,-24.41,-4.02,44.31,35.28
1,20785,5,-73.73,-231.57,-490.84,1614.99,135.5,-150.15,30.68,2.58,-37.72
2,20797,5,0.12,-22.46,-129.39,1149.29,-100.1,-401.61,25.76,13.77,-32.36
3,20809,0,0.0,,,,,,,,
4,20811,0,0.0,,,,,,,,
5,20812,0,0.0,,,,,,,,
6,20814,0,0.0,,,,,,,,
0,20817,6,549.32,-556.76,520.75,-1741.94,170.9,1090.7,-3.52,48.63,30.86
1,20830,5,110.84,-196.04,-496.7,2350.46,-632.32,-346.68,30.94,8.30,-38.96
2,20842,5,178.47,-289.92,-123.29,1671.14,-174.56,-707.4,24.74,19.76,-31.29
3,20858,0,0.0,,,,,,,,
4,20859,1,0.0,,,,,,,,
5,20861,0,0.0,,,,,,,,
6,20864,0,0.0,,,,,,,,
0,20867,4,18.43,-521.61,557.98,-2390.14,228.27,1435.55,2.04,53.44,21.35
1,20879,4,-279.66,-1177.25,-192.38,2720.95,-564.58,-883.79,28.6,18.86,-39.93
2,20891,5,-173.58,-737.18,-166.38,2379.15,-272.83,-900.88,21.94,28.03,-27.45
3,20903,0,0.0,,,,,,,,
4,20905,0,0.0,,,,,,,,
5,20907,0,0.0,,,,,,,,
6,20909,0,0.0,,,,,,,,
0,20912,5,105.35,-1060.91,815.8,-2399.29,254.52,1163.33,8.07,50.62,12.60
1,20928,4,-109.99,-1603.27,87.77,2783.81,-237.43,-734.25,25.16,32.34,-35.28
2,20940,5,140.38,-1332.15,-49.44,2702.64,-256.96,-890.5,18.81,35.38,-19.38
3,20953,0,0.0,,,,,,,,
4,20955,0,0.0,,,,,,,,
5,20956,0,0.0,,,,,,,,
6,20958,0,0.0,,,,,,,,
0,20961,5,470.7,-1671.14,990.48,-2465.21,98.27,1319.58,11.94,47.69,6.32
1,20973,5,488.28,-2048.71,553.59,2797.85,-681.15,-561.52,21.33,37.81,-25.95
2,20985,5,221.31,-2095.83,319.82,2753.3,-582.89,-654.3,15.61,39.14,-10.57
3,21002,0,0.0,,,,,,,,
4,21003,1,0.0,,,,,,,,
5,21005,0,0.0,,,,,,,,
6,21007,0,0.0,,,,,,,,
0,21010,5,668.33,-2264.65,562.74,-2074.58,-800.17,1593.02,16.06,45.34,-1.27
1,21022,5,-833.37,-2250.49,1716.31,2374.88,-1068.73,-7.93,19.03,41.11,-19.69
2,21035,5,-497.68,-2219.6,945.56,1939.09,-1585.08,-912.48,12.19,41.59,-3.19
3,21047,0,0.0,,,,,,,,
4,21049,0,0.0,,,,,,,,
5,21050,0,0.0,,,,,,,,
6,21052,0,0.0,,,,,,,,
0,21055,5,-675.17,-1905.27,-289.67,-1131.59,134.28,1071.78,19.23,40.84,-8.42
1,21071,5,808.72,-1394.65,2289.55,918.58,-632.32,-1246.95,18.51,44.64,-14.67
2,21084,5,1.46,-1625.85,1364.26,485.23,346.68,-125.73,9.53,42.87,0.63
3,21096,0,0.0,,,,,,,,
4,21098,0,0.0,,,,,,,,
5,21099,0,0.0,,,,,,,,
6,21101,0,0.0,,,,,,,,
0,21104,5,-147.58,-1600.34,-618.04,200.2,-803.22,244.14,22.61,37.41,-10.02
1,21116,6,-1180.79,-2474.0,2661.01,-376.59,114.75,444.95,15.17,45.54,-13.13
2,21129,5,-728.39,-1528.93,749.63,-729.37,116.58,237.43,9.96,43.12,0.65
3,21145,0,0.0,,,,,,,,
4,21146,0,0.0,,,,,,,,
5,21148,0,0.0,,,,,,,,
6,21150,0,0.0,,,,,,,,
0,21153,4,822.63,-167.36,1949.58,1113.89,-160.52,-1378.17,21.19,39.67,-8.98
1,21166,4,-2.93,-1758.54,-546.51,-2096.56,691.53,959.47,18.96,44.25,-18.57
2,21178,5,-166.14,-1362.92,-169.56,-728.76,-215.45,59.81,10.45,43.60,-2.89
3,21190,0,0.0,,,,,,,,
4,21191,1,0.0,,,,,,,,
5,21193,0,0.0,,,,,,,,
6,21195,0,0.0,,,,,,,,
0,21198,5,-62.62,-1500.24,1238.77,1470.95,-471.8,-272.83,17.41,44.12,-5.82
1,21215,4,-101.32,-802.25,381.35,-1265.26,403.44,81.79,22.23,40.44,-24.30
2,21227,4,-130.49,-1740.97,662.35,-1246.34,31.13,-85.45,10.44,42.08,-6.68
3,21239,0,0.0,,,,,,,,
4,21240,0,0.0,,,,,,,,
5,21242,0,0.0,,,,,,,,
6,21244,0,0.0,,,,,,,,
0,21248,4,-116.21,-899.05,1024.41,501.1,-247.19,-217.29,17.61,43.69,-3.14
1,21260,4,-28.56,-721.56,224.85,-267.94,13.43,-38.45,22.55,39.10,-26.53
2,21272,3,-337.16,-676.03,-32.35,-869.75,-504.15,7.93,10.44,42.08,-6.68
3,21286,0,0.0,,,,,,,,
4,21288,0,0.0,,,,,,,,
5,21291,0,0.0,,,,,,,,
6,21292,0,0.0,,,,,,,,
0,21296,4,249.63,-631.96,755.98,150.15,-69.58,-97.05,17.92,43.71,-1.76
1,21307,5,-45.17,-831.3,196.53,-88.5,48.22,93.38,22.31,38.82,-27.65
2,21319,5,-45.53,-1011.35,-54.57,-580.44,498.66,-13.43,9.62,41.87,-11.80
3,21331,0,0.0,,,,,,,,
4,21332,2,0.0,,,,,,,,
5,21335,0,0.0,,,,,,,,
6,21337,0,0.0,,,,,,,,
0,21340,5,98.27,-617.19,823.97,107.42,-28.69,-57.37,17.0,43.84,-1.25
1,21356,4,-62.38,-1032.35,177.86,22.58,28.69,-20.14,22.51,38.51,-27.71
2,21368,4,-283.69,-966.19,15.38,-358.89,40.89,-38.45,10.05,41.77,-14.25
3,21380,0,0.0,,,,,,,,
4,21382,0,0.0,,,,,,,,
5,21384,0,0.0,,,,,,,,
6,21385,0,0.0,,,,,,,,
0,21389,4,190.55,-588.01,777.95,225.22,225.83,-7.32,17.69,43.53,-1.83
1,21400,5,-57.25,-1025.15,175.54,29.3,36.01,-74.46,22.74,38.24,-28.02
2,21412,5,-198.36,-1051.27,-59.94,-269.17,275.27,-12.82,9.35,41.65,-14.89
3,21425,0,0.0,,,,,,,,
4,21430,1,0.09775199999999999,,,,,,,,
5,21432,0,0.0,,,,,,,,
6,21434,0,0.0,,,,,,,,
0,21437,5,278.69,-614.87,739.87,225.83,228.27,25.63,18.12,42.99,-0.72
1,21449,4,-69.82,-950.56,191.77,-12.82,87.28,-68.36,22.08,37.92,-28.06
2,21462,4,-123.78,-959.47,24.41,-273.44,303.34,45.17,10.18,41.30,-16.27
3,21473,1,0.0,,,,,,,,
4,21475,0,0.195695,,,,,,,,
5,21477,0,0.0,,,,,,,,
6,21479,0,0.0,,,,,,,,
0,21482,4,245.24,-613.89,729.61,178.22,200.81,30.52,18.3,43.86,0.46
1,21494,3,-72.02,-953.37,193.73,-8.54,65.92,-70.19,22.08,37.92,-28.06
2,21509,5,-141.6,-964.97,46.26,-264.89,244.14,54.32,10.13,40.84,-17.86
3,21521,0,0.0,,,,,,,,
4,21523,0,0.29383000000000004,,,,,,,,
5,21524,0,0.0,,,,,,,,
6,21526,0,0.0,,,,,,,,
0,21529,5,253.05,-662.23,689.82,167.85,227.66,30.52,19.31,43.80,0.45
1,21541,6,-64.94,-934.94,213.5,25.02,37.84,-79.96,22.53,38.16,-28.53
2,21554,4,-144.04,-973.39,117.19,-211.18,236.21,36.01,11.25,40.42,-17.96
3,21566,0,0.0,,,,,,,,
4,21567,0,0.39215700000000003,,,,,,,,
5,21569,0,0.0,,,,,,,,
6,21575,0,0.0,,,,,,,,
0,21578,4,208.13,-657.84,718.75,87.89,213.62,70.19,19.78,44.06,1.54
1,21591,4,-50.9,-996.58,210.21,54.93,3.05,-114.75,21.83,38.26,-28.67
2,21602,5,-150.76,-1036.62,66.04,-221.56,244.75,19.53,11.16,39.76,-18.75
3,21614,0,0.0,,,,,,,,
4,21616,0,0.49067700000000003,,,,,,,,
5,21617,1,0.0,,,,,,,,
6,21619,0,0.0,,,,,,,,
0,21623,4,262.08,-645.63,692.87,99.49,255.74,75.68,19.34,44.52,1.28
1,21635,5,-108.28,-982.18,218.75,17.09,23.8,-189.82,21.58,37.90,-29.08
2,21651,4,-167.36,-981.69,117.55,-241.09,173.34,42.72,12.18,38.62,-20.28
3,21663,0,0.0,,,,,,,,
4,21664,0,0.589391,,,,,,,,
5,21666,0,0.0,,,,,,,,
6,21668,0,0.0,,,,,,,,
0,21671,5,321.78,-644.04,675.54,93.99,214.23,56.15,19.37,45.41,1.37
1,21684,4,-131.35,-994.38,247.8,10.38,8.54,-168.46,20.65,37.78,-29.21
2,21696,4,-158.81,-1009.16,156.49,-257.57,142.82,63.48,13.59,37.65,-20.28
3,21707,0,0.0,,,,,,,,
4,21709,0,0.589391,,,,,,,,
5,21711,0,0.0,,,,,,,,
6,21712,1,0.0,,,,,,,,
0,21716,4,417.24,-631.59,622.68,111.69,143.43,4.88,19.37,45.41,1.37
1,21731,5,-190.8,-970.58,229.61,-15.87,43.33,-97.66,20.21,37.68,-29.41
2,21743,5,-335.57,-966.19,210.94,-289.31,-84.23,101.32,14.32,36.57,-21.74
3,21755,0,0.0,,,,,,,,
4,21756,1,0.49067700000000003,,,,,,,,
5,21758,0,0.0,,,,,,,,
6,21761,0,0.0,,,,,,,,
0,21764,5,416.02,-657.96,642.82,56.76,-139.77,-65.92,19.07,45.97,1.45
1,21776,4,-187.01,-1064.33,230.71,47.0,-17.09,124.51,20.41,37.63,-28.21
2,21788,4,-287.96,-1056.27,189.09,-320.43,81.79,202.64,14.95,35.58,-22.53
3,21804,1,0.0,,,,,,,,
4,21806,0,0.29383000000000004,,,,,,,,
5,21808,0,0.09775199999999999,,,,,,,,
6,21810,0,0.0,,,,,,,,
0,21813,4,299.07,-631.47,734.13,27.47,-228.88,-117.8,16.89,47.88,2.43
1,21825,4,-129.52,-1249.02,232.3,-95.21,-34.79,158.69,20.81,37.50,-29.27
2,21837,4,-195.43,-1245.0,152.47,-461.43,182.5,340.58,17.05,32.59,-23.99
3,21850,0,0.0,,,,,,,,
4,21851,0,0.0,,,,,,,,
5,21853,0,0.09775199999999999,,,,,,,,
6,21855,0,0.0,,,,,,,,
0,21858,4,345.21,-599.49,863.53,441.89,-128.78,-261.23,14.39,50.05,2.01
1,21874,4,-343.38,-1481.32,264.53,-512.7,161.74,297.24,21.03,36.32,-30.22
2,21886,5,-288.21,-1443.12,110.47,-629.88,442.5,443.12,20.0,30.29,-25.40
3,21898,1,0.0,,,,,,,,
4,21900,0,0.0,,,,,,,,
5,21902,0,0.0,,,,,,,,
6,21903,1,0.0,,,,,,,,
0,21907,4,304.32,-682.13,931.52,1336.67,51.88,-488.28,12.17,51.31,4.57
1,21919,4,58.47,-1927.49,187.62,-1047.36,194.09,238.65,22.55,33.54,-33.12
2,21932,4,212.77,-1693.36,-91.06,-1011.35,402.22,495.0,22.2,27.65,-26.93
3,21947,0,0.0,,,,,,,,
4,21949,0,0.0,,,,,,,,
5,21950,1,0.0,,,,,,,,
6,21952,0,0.0,,,,,,,,
0,21956,4,286.01,-886.96,1007.81,2203.98,415.04,-670.17,10.11,52.05,8.67
1,21967,5,-361.45,-1618.65,253.17,-2034.91,233.76,-90.33,24.15,28.00,-36.04
2,21980,4,-59.45,-1243.16,294.43,-1151.73,5.49,380.25,22.2,27.65,-26.93
3,21991,0,0.0,,,,,,,,
4,21993,0,0.0,,,,,,,,
5,21994,0,0.0,,,,,,,,
6,21996,0,0.0,,,,,,,,
0,21999,5,355.83,-1283.81,710.08,1574.71,801.39,-937.5,9.3,52.22,14.97
1,22016,5,-522.58,-689.21,129.39,-1809.69,740.36,-300.9,24.16,19.85,-40.71
2,22028,5,-351.44,-433.11,447.14,-686.04,82.4,258.79,22.94,24.29,-30.51
3,22040,0,0.0,,,,,,,,
4,22042,0,0.0,,,,,,,,
5,22043,0,0.0,,,,,,,,
6,22045,0,0.0,,,,,,,,
0,22048,5,799.93,-756.47,749.88,562.74,610.96,-703.13,4.61,52.01,21.45
1,22061,4,-166.14,335.94,-570.43,349.12,856.32,125.12,27.82,16.69,-40.09
2,22073,4,-140.5,56.4,-187.87,-56.15,476.68,-48.22,23.4,20.31,-32.59
3,22088,1,0.0,,,,,,,,
4,22090,0,0.0,,,,,,,,
5,22092,0,0.0,,,,,,,,
6,22093,0,0.0,,,,,,,,
0,22097,5,334.23,-66.65,429.2,-836.18,321.04,-576.17,1.16,51.28,21.57
1,22110,4,396.0,-36.38,-459.59,745.24,482.18,-18.92,30.3,19.91,-37.73
2,22122,4,277.59,-165.28,-54.81,656.74,662.84,-117.8,25.49,20.06,-31.21
3,22133,0,0.0,,,,,,,,
4,22135,0,0.0,,,,,,,,
5,22136,0,0.0,,,,,,,,
6,22138,0,0.0,,,,,,,,
0,22141,6,345.34,-342.29,570.31,-1256.1,-59.81,382.69,-0.22,50.82,17.81
1,22158,4,97.17,-487.55,-274.41,1818.85,-125.73,-230.1,30.3,19.91,-37.73
2,22169,5,97.53,-453.13,-50.17,1368.41,13.43,-465.7,27.91,22.33,-28.61
3,22181,0,0.0,,,,,,,,
4,22182,1,0.0,,,,,,,,
5,22184,0,0.0,,,,,,,,
6,22187,0,0.0,,,,,,,,
0,22190,5,218.75,-737.67,589.97,-1495.36,138.55,968.63,1.23,51.31,12.40
1,22202,4,-148.93,-682.86,-35.16,1949.46,-346.07,-377.2,30.16,25.72,-35.30
2,22214,5,102.42,-737.55,140.87,1588.75,-266.11,-569.46,26.27,27.39,-25.87
3,22231,0,0.0,,,,,,,,
4,22232,0,0.0,,,,,,,,
5,22234,0,0.0,,,,,,,,
6,22236,0,0.0,,,,,,,,
0,22239,4,132.57,-960.33,588.99,-1826.17,209.35,913.09,5.49,50.29,6.43
1,22251,4,165.04,-1415.04,481.57,2060.55,-323.49,-463.87,28.42,32.15,-32.36
2,22263,4,88.5,-1229.98,390.14,1697.39,-281.37,-525.51,23.83,32.74,-22.08
3,22276,0,0.0,,,,,,,,
4,22277,0,0.0,,,,,,,,
5,22279,0,0.0,,,,,,,,
6,22281,0,0.0,,,,,,,,
0,22284,4,279.54,-1150.39,505.86,-1365.97,48.83,1051.03,8.95,48.24,1.09
1,22308,4,-120.85,-1582.15,888.55,1304.93,-593.87,-369.87,26.2,37.73,-27.55
2,22321,4,91.8,-1436.77,541.87,1461.18,-512.08,-498.66,20.98,36.77,-17.41
3,22332,1,0.0,,,,,,,,
4,22334,0,0.0,,,,,,,,
5,22336,0,0.0,,,,,,,,
6,22337,0,0.0,,,,,,,,
0,22341,4,835.94,-1187.01,64.33,-576.17,-132.45,776.98,12.66,45.74,-2.92
1,22353,5,527.22,-874.02,2613.77,-1784.67,-700.68,1351.32,23.43,41.33,-23.00
2,22366,4,304.81,-2133.91,1698.0,480.96,-542.6,-71.41,18.62,40.12,-11.68
3,22381,1,0.0,,,,,,,,
4,22383,0,0.0,,,,,,,,
5,22385,0,0.0,,,,,,,,
6,22386,0,0.0,,,,,,,,
0,22390,4,-1185.79,-103.03,376.1,-693.36,-761.72,-681.15,11.85,45.36,-3.27
1,22403,4,266.72,-791.38,-364.38,2258.91,-883.79,-527.95,24.27,38.88,-26.38
2,22415,4,520.87,-784.91,-1151.98,420.53,-364.99,354.61,18.41,39.66,-12.67
3,22427,0,0.0,,,,,,,,
4,22428,0,0.0,,,,,,,,
5,22430,0,0.0,,,,,,,,
6,22432,0,0.0,,,,,,,,
0,22435,4,335.08,-432.01,860.35,52.49,178.83,82.4,9.29,46.75,-2.84
1,22451,5,-181.76,-929.57,156.86,-170.9,311.28,19.53,23.84,40.89,-23.96
2,22463,5,2.81,-1104.13,-102.42,-206.3,469.36,164.18,17.07,40.78,-10.72
3,22475,0,0.0,,,,,,,,
4,22477,0,0.0,,,,,,,,
5,22478,0,0.0,,,,,,,,
6,22480,0,0.0,,,,,,,,
0,22483,6,250.0,-567.63,756.47,49.44,0.61,-29.3,10.35,46.33,-3.02
1,22496,4,-1.83,-942.5,120.36,-45.78,56.15,46.39,24.08,40.50,-24.46
2,22508,4,185.06,-1011.23,-136.6,-120.85,-117.19,21.97,18.8,40.30,-12.43
3,22523,0,0.0,,,,,,,,
4,22525,0,0.0,,,,,,,,
5,22526,2,0.0,,,,,,,,
6,22529,0,0.0,,,,,,,,
0,22533,4,213.13,-607.42,744.02,17.09,-12.82,-21.97,9.67,46.64,-2.03
1,22544,5,-105.83,-811.65,148.56,94.6,21.97,40.28,24.8,40.12,-25.54
2,22556,5,-248.66,-1007.32,-8.3,-43.95,59.81,36.62,18.12,39.82,-12.49
3,22568,0,0.0,,,,,,,,
4,22569,0,0.0,,,,,,,,
5,22572,0,0.0,,,,,,,,
6,22574,0,0.0,,,,,,,,
0,22577,4,163.21,-581.79,807.01,-26.25,-54.93,-12.82,8.84,47.13,-1.86
1,22589,4,-46.02,-924.93,125.49,21.97,4.88,18.31,24.38,40.71,-25.29
2,22604,5,13.18,-1042.72,-133.06,-77.51,263.06,111.69,19.01,39.59,-12.55
3,22617,0,0.0,,,,,,,,
4,22619,0,0.0,,,,,,,,
5,22620,0,0.0,,,,,,,,
6,22622,0,0.0,,,,,,,,
0,22625,5,182.62,-576.17,789.67,15.26,-29.3,-20.75,9.2,46.85,-3.31
1,22637,4,-4.15,-997.56,140.99,75.07,-23.19,34.79,24.89,40.08,-25.29
2,22649,4,60.91,-1001.83,-24.78,-50.05,-4.88,26.86,19.41,39.45,-12.87
3,22661,0,0.0,,,,,,,,
4,22663,0,0.0,,,,,,,,
5,22668,0,0.0,,,,,,,,
6,22670,0,0.0,,,,,,,,
0,22673,5,168.46,-573.73,785.03,6.1,7.93,6.71,8.73,47.20,-3.45
1,22685,4,-62.38,-997.31,127.93,73.24,35.4,-14.65,24.39,40.11,-24.56
2,22697,5,-116.33,-989.01,-56.76,-34.18,-219.73,5.49,19.04,39.23,-13.67
3,22709,0,0.0,,,,,,,,
4,22711,0,0.0,,,,,,,,
5,22713,0,0.0,,,,,,,,
6,22714,0,0.0,,,,,,,,
0,22718,4,163.82,-571.29,790.41,0.61,7.32,-6.71,8.37,47.20,-3.21
1,22729,5,-41.14,-989.14,131.84,77.51,10.99,6.71,24.43,40.25,-25.31
2,22746,4,-56.15,-1000.73,-30.88,-1.83,104.98,43.95,19.24,39.01,-13.04
3,22757,1,0.0,,,,,,,,
4,22759,0,0.0,,,,,,,,
5,22761,0,0.0,,,,,,,,
6,22762,0,0.0,,,,,,,,
