id,t,dt,ax,ay,az,gx,gy,gz,mx,my,mz
-1,119,119,119.0,119.0,119.0,119.0,20.0,20.0,20.0,-6:48:41,04 12 2021
0,18914,4,133.06,-603.03,773.8,23.19,9.16,12.21,29.19,18.08,-17.74
1,18925,5,-25.76,-994.51,166.02,89.11,14.04,4.88,5.59,45.74,5.03
2,18937,4,-152.22,-1000.49,8.79,14.04,0.61,18.92,-3.39,38.98,15.98
3,18949,1,0.0,,,,,,,,
4,18951,0,0.0,,,,,,,,
5,18961,1,0.0,,,,,,,,
6,18963,0,0.0,,,,,,,,
0,18966,5,132.93,-602.29,772.95,23.8,10.38,10.99,28.91,17.75,-17.94
1,18978,5,-25.02,-993.41,165.89,91.55,13.43,5.49,5.86,45.68,5.11
2,18991,4,-149.29,-1000.49,9.28,11.6,1.22,23.19,-2.65,38.88,16.71
3,19002,0,0.0,,,,,,,,
4,19004,0,0.0,,,,,,,,
5,19006,0,0.0,,,,,,,,
6,19007,0,0.0,,,,,,,,
0,19011,4,129.88,-602.54,771.73,24.41,9.16,8.54,29.41,18.04,-18.35
1,19022,5,-22.46,-992.92,165.04,87.28,14.65,3.66,5.6,45.40,4.80
2,19040,4,-146.0,-1000.49,13.06,11.6,-4.88,23.8,-3.37,38.57,15.87
3,19051,0,0.0,,,,,,,,
4,19053,0,0.0,,,,,,,,
5,19055,0,0.0,,,,,,,,
6,19056,0,0.0,,,,,,,,
0,19060,4,130.98,-601.32,774.66,26.86,11.6,9.77,29.44,17.88,-18.02
1,19072,5,-26.12,-996.34,165.41,83.62,14.04,7.32,6.2,45.31,5.10
2,19084,4,-150.51,-1000.61,10.86,14.65,0.0,25.63,-2.94,38.22,16.82
3,19095,1,0.0,,,,,,,,
4,19097,0,0.0,,,,,,,,
5,19099,0,0.0,,,,,,,,
6,19100,0,0.0,,,,,,,,
0,19104,4,128.05,-603.27,775.39,30.52,9.77,6.71,29.02,18.07,-18.14
1,19120,5,-23.32,-992.8,167.36,83.62,14.65,9.77,6.08,45.12,4.41
2,19132,4,-144.53,-994.14,11.6,15.87,-2.44,27.47,-2.51,38.45,16.43
3,19143,0,0.0,,,,,,,,
4,19145,0,0.0,,,,,,,,
5,19146,1,0.0,,,,,,,,
6,19148,0,0.0,,,,,,,,
0,19152,4,136.84,-605.1,768.92,28.08,1.22,0.0,28.75,17.87,-17.96
1,19164,5,-28.2,-994.26,167.36,83.62,18.31,19.53,5.97,45.72,3.50
2,19176,4,-138.31,-999.51,19.04,15.26,-38.45,23.8,-2.34,39.00,17.02
3,19191,0,0.0,,,,,,,,
4,19193,0,0.0,,,,,,,,
5,19194,0,0.0,,,,,,,,
6,19196,0,0.0,,,,,,,,
0,19200,5,119.51,-606.57,772.83,23.19,-11.6,-7.32,29.52,18.24,-17.91
1,19212,5,-16.36,-989.01,168.33,84.84,19.53,20.75,6.18,45.68,4.63
2,19224,4,-133.91,-996.7,20.75,13.43,-27.47,19.53,-2.33,39.23,17.48
3,19235,0,0.0,,,,,,,,
4,19237,0,0.0,,,,,,,,
5,19239,0,0.0,,,,,,,,
6,19240,0,0.0,,,,,,,,
0,19245,4,116.82,-607.3,769.65,21.36,0.61,6.1,29.64,18.41,-18.97
1,19256,5,-17.46,-988.4,169.68,86.67,14.04,6.71,6.37,45.54,4.14
2,19272,4,-134.4,-994.26,24.54,15.26,-25.63,11.6,-1.66,38.87,15.17
3,19283,0,0.0,,,,,,,,
4,19286,0,0.0,,,,,,,,
5,19287,1,0.0,,,,,,,,
6,19289,0,0.0,,,,,,,,
0,19293,4,112.43,-606.08,773.68,17.09,4.88,10.99,29.33,17.99,-19.17
1,19304,5,-15.5,-992.43,168.58,92.16,13.43,-1.22,5.87,45.00,4.44
2,19316,3,-138.06,-1000.85,18.8,18.31,-6.71,6.1,-1.66,38.87,15.17
3,19326,0,0.0,,,,,,,,
4,19329,0,0.0,,,,,,,,
5,19331,0,0.0,,,,,,,,
6,19336,0,0.0,,,,,,,,
0,19339,5,111.69,-605.71,773.93,18.31,16.48,18.31,29.33,17.71,-18.32
1,19351,5,-9.03,-985.84,168.58,93.99,10.99,-5.49,6.13,45.37,5.20
2,19363,4,-131.84,-996.09,18.07,17.09,27.47,7.32,-1.82,38.66,16.19
3,19375,0,0.0,,,,,,,,
4,19377,0,0.0,,,,,,,,
5,19378,1,0.0,,,,,,,,
6,19380,0,0.0,,,,,,,,
0,19383,5,115.11,-606.45,773.44,13.43,26.25,27.47,28.98,17.66,-18.60
1,19395,5,-16.24,-989.38,168.21,96.44,7.93,-14.04,6.05,45.72,4.92
2,19407,4,-153.69,-996.7,19.53,7.93,37.84,12.82,-1.81,38.54,15.32
3,19423,0,0.0,,,,,,,,
4,19425,0,0.0,,,,,,,,
5,19426,1,0.0,,,,,,,,
6,19428,0,0.0,,,,,,,,
0,19431,5,126.59,-612.3,773.07,0.61,31.13,31.74,29.08,17.57,-18.77
1,19443,5,-25.88,-989.26,167.85,104.98,9.77,-20.75,6.27,45.69,4.69
2,19456,4,-144.65,-997.31,18.92,-2.44,45.17,22.58,-1.88,39.79,15.48
3,19467,0,0.0,,,,,,,,
4,19469,0,0.0,,,,,,,,
5,19471,0,0.0,,,,,,,,
6,19472,0,0.0,,,,,,,,
0,19476,4,135.62,-608.28,773.19,-17.09,20.75,23.19,28.65,17.99,-17.83
1,19491,4,-21.97,-989.38,163.82,87.89,7.93,-9.16,6.27,45.69,4.69
2,19503,4,-138.18,-1020.39,-27.95,-69.58,34.18,53.71,-2.21,39.51,16.11
3,19514,0,0.0,,,,,,,,
4,19516,0,0.0,,,,,,,,
5,19518,0,0.0,,,,,,,,
6,19519,0,0.0,,,,,,,,
0,19523,4,131.1,-597.66,780.03,-10.99,-2.44,-4.88,28.72,18.15,-19.25
1,19535,4,-15.87,-1001.59,165.41,89.11,11.6,9.77,5.33,45.75,5.19
2,19547,5,-136.84,-1009.77,30.76,-121.46,18.92,91.55,-1.81,38.96,15.49
3,19563,0,0.0,,,,,,,,
4,19564,0,0.0,,,,,,,,
5,19566,0,0.0,,,,,,,,
6,19568,0,0.0,,,,,,,,
0,19571,3,114.62,-604.0,781.49,-10.99,-1.83,-12.21,28.72,18.15,-19.25
1,19582,5,-21.97,-997.44,166.87,94.6,7.32,-1.83,6.16,45.72,5.63
2,19594,5,-131.35,-1050.05,-28.08,-194.09,41.5,125.73,-1.86,39.20,14.40
3,19606,0,0.0,,,,,,,,
4,19608,0,0.0,,,,,,,,
5,19609,0,0.0,,,,,,,,
6,19611,0,0.0,,,,,,,,
0,19614,5,131.1,-568.24,790.41,13.43,-6.1,-23.19,28.94,17.99,-18.16
1,19627,4,-20.02,-1016.97,165.41,57.37,11.6,17.09,6.19,45.90,4.49
2,19643,4,-135.01,-1050.66,43.82,-285.64,123.9,195.92,-1.07,41.09,14.21
3,19654,0,0.0,,,,,,,,
4,19656,0,0.0,,,,,,,,
5,19657,0,0.0,,,,,,,,
6,19659,0,0.0,,,,,,,,
0,19662,5,83.37,-545.17,833.98,89.11,32.96,-37.23,28.6,17.94,-18.42
1,19675,5,-28.2,-1042.24,166.5,43.33,14.65,31.74,6.71,45.40,3.61
2,19687,4,-65.19,-1082.52,65.8,-367.43,218.51,160.52,-0.74,41.67,12.67
3,19698,1,0.0,,,,,,,,
4,19700,0,0.0,,,,,,,,
5,19705,1,0.0,,,,,,,,
6,19707,0,0.0,,,,,,,,
0,19712,4,105.59,-601.2,845.95,258.79,187.38,-96.44,29.11,18.08,-18.76
1,19723,5,-80.57,-1276.86,147.95,-79.35,61.04,98.88,5.8,46.12,4.54
2,19735,5,-131.1,-1271.24,-53.1,-476.68,318.6,234.99,-0.4,42.43,10.52
3,19747,0,0.0,,,,,,,,
4,19748,1,0.0,,,,,,,,
5,19750,0,0.0,,,,,,,,
6,19752,0,0.0,,,,,,,,
0,19756,5,148.19,-507.81,952.03,555.42,165.41,-161.74,30.16,18.42,-17.83
1,19768,4,-5.49,-1544.07,191.89,-556.64,143.43,59.2,6.79,46.53,3.69
2,19784,4,-13.18,-1323.36,39.31,-628.66,431.52,264.28,0.99,42.82,8.25
3,19795,0,0.0,,,,,,,,
4,19798,0,0.0,,,,,,,,
5,19799,1,0.0,,,,,,,,
6,19801,0,0.0,,,,,,,,
0,19804,5,145.39,-750.85,879.39,1256.1,349.12,-252.08,30.65,20.72,-16.86
1,19816,5,-196.17,-1301.15,205.08,-920.41,265.5,-82.4,6.63,46.30,-0.52
2,19828,5,-127.44,-1137.45,154.54,-628.66,480.96,209.35,0.81,43.69,5.26
3,19841,0,0.0,,,,,,,,
4,19843,0,0.0,,,,,,,,
5,19844,0,0.0,,,,,,,,
6,19850,0,0.0,,,,,,,,
0,19853,4,363.4,-793.95,786.99,960.08,587.16,-448.0,31.42,25.48,-15.43
1,19865,4,-108.89,-621.95,-234.99,-925.9,449.83,-167.24,5.68,46.33,-5.71
2,19877,4,-58.47,-742.92,-187.87,-432.13,394.29,51.27,1.61,43.73,2.71
3,19890,0,0.0,,,,,,,,
4,19891,0,0.0,,,,,,,,
5,19893,0,0.0,,,,,,,,
6,19894,1,0.0,,,,,,,,
0,19898,4,104.61,-181.88,1187.38,239.87,351.56,-465.7,32.51,28.89,-12.94
1,19910,4,-93.99,-454.96,-798.34,5.49,704.96,-122.68,6.04,46.59,-7.53
2,19926,4,21.0,-501.34,-480.96,246.58,611.57,-91.55,1.61,43.73,2.71
3,19937,0,0.0,,,,,,,,
4,19939,0,0.0,,,,,,,,
5,19940,0,0.0,,,,,,,,
6,19942,0,0.0,,,,,,,,
0,19945,5,395.51,-107.91,1001.22,-418.7,344.85,-176.39,32.78,29.19,-12.15
1,19957,5,161.62,-726.07,-577.03,576.17,316.77,-164.79,5.25,46.79,-6.48
2,19970,5,202.51,-711.3,-388.31,748.9,171.51,-260.62,0.68,43.81,0.95
3,19982,0,0.0,,,,,,,,
4,19983,0,0.0,,,,,,,,
5,19985,0,0.0,,,,,,,,
6,19987,0,0.0,,,,,,,,
0,19994,4,325.93,-176.15,940.92,-620.73,-37.84,386.96,33.7,28.27,-13.42
1,20006,5,5.37,-953.74,-331.3,819.09,-93.38,-84.23,4.46,47.47,-3.67
2,20019,4,36.99,-837.4,-264.4,1154.79,-170.9,-352.78,-0.6,43.25,3.23
3,20030,0,0.0,,,,,,,,
4,20032,0,0.0,,,,,,,,
5,20033,1,0.0,,,,,,,,
6,20035,0,0.0,,,,,,,,
0,20038,5,279.05,-606.57,980.59,-880.74,-116.58,549.32,33.57,25.10,-12.82
1,20050,6,132.08,-1075.2,-134.77,1156.01,-230.1,-111.69,4.33,46.44,-0.37
2,20063,5,93.26,-992.55,-188.11,1445.31,-539.55,-330.81,-1.59,41.17,9.38
3,20079,0,0.0,,,,,,,,
4,20081,0,0.0,,,,,,,,
5,20082,0,0.0,,,,,,,,
6,20084,0,0.0,,,,,,,,
0,20087,5,286.74,-696.78,870.0,-938.11,-404.05,792.85,33.4,21.74,-15.25
1,20100,4,35.77,-1339.48,209.47,1113.28,-541.99,10.38,4.33,46.44,-0.37
2,20111,4,-32.59,-1231.57,-79.22,1557.01,-670.78,-261.84,-2.09,38.89,15.30
3,20123,0,0.0,,,,,,,,
4,20124,0,0.0,,,,,,,,
5,20126,0,0.0,,,,,,,,
6,20128,0,0.0,,,,,,,,
0,20131,4,194.82,-919.92,751.59,-709.23,-344.24,853.88,32.4,17.88,-14.72
1,20148,4,-56.03,-1235.96,593.51,879.52,-657.35,-81.18,4.15,45.09,5.30
2,20160,4,-222.05,-1396.85,218.02,1391.6,-651.86,-233.76,-1.82,34.81,20.64
3,20171,0,0.0,,,,,,,,
4,20173,0,0.0,,,,,,,,
5,20175,0,0.0,,,,,,,,
6,20176,0,0.0,,,,,,,,
0,20180,5,114.26,-1270.39,555.3,-725.71,-531.01,728.76,30.33,13.99,-16.03
1,20193,4,-267.33,-1122.44,775.15,1027.83,-530.4,5.49,5.4,43.44,9.14
2,20205,4,-261.47,-1255.37,262.21,996.7,-574.95,-228.27,-0.37,31.46,24.73
3,20220,0,0.0,,,,,,,,
4,20222,0,0.0,,,,,,,,
5,20224,0,0.0,,,,,,,,
6,20226,0,0.0,,,,,,,,
0,20229,5,-17.94,-1134.03,236.33,-548.1,-25.63,476.68,29.31,11.00,-16.72
1,20241,5,-117.55,-942.63,1028.32,645.75,-195.92,-170.9,6.13,41.53,11.95
2,20253,5,-260.5,-1256.35,486.69,336.91,-57.37,-142.82,0.34,28.81,27.53
3,20265,0,0.0,,,,,,,,
4,20267,1,0.0,,,,,,,,
5,20269,0,0.0,,,,,,,,
6,20271,0,0.0,,,,,,,,
0,20274,5,-153.32,-1018.92,-50.17,-215.45,244.14,69.58,30.16,9.77,-16.56
1,20290,4,-138.55,-968.26,1160.03,-78.74,300.29,-220.34,5.7,39.58,14.25
2,20302,4,-202.39,-1230.35,508.3,-563.96,189.82,22.58,-0.21,28.63,27.36
3,20314,0,0.0,,,,,,,,
4,20316,0,0.0,,,,,,,,
5,20318,0,0.0,,,,,,,,
6,20319,0,0.0,,,,,,,,
0,20323,4,297.0,-370.12,523.07,527.95,109.25,-496.83,30.74,10.78,-15.15
1,20335,4,-81.91,-1412.23,-669.19,-186.77,231.93,-47.61,4.42,39.62,13.16
2,20347,5,-14.04,-805.54,-1468.02,-306.4,-50.05,57.98,-1.29,30.26,25.50
3,20363,0,0.0,,,,,,,,
4,20365,0,0.0,,,,,,,,
5,20366,0,0.0,,,,,,,,
6,20368,0,0.0,,,,,,,,
0,20371,5,404.17,-602.66,579.96,1218.26,-200.81,-244.14,30.73,13.39,-15.34
1,20383,5,-46.26,-961.18,172.97,-1234.74,-138.55,376.59,4.71,40.67,10.12
2,20396,5,21.48,-1144.9,-32.96,-646.97,-122.68,-12.82,-0.92,31.43,24.62
3,20408,0,0.0,,,,,,,,
4,20410,0,0.0,,,,,,,,
5,20411,0,0.0,,,,,,,,
6,20413,0,0.0,,,,,,,,
0,20416,5,153.2,-1339.48,913.33,325.93,-121.46,-509.64,30.62,16.63,-14.83
1,20432,4,105.35,-677.12,309.69,-376.59,12.21,-58.59,5.26,42.70,6.20
2,20445,4,85.82,-1032.71,-245.61,-869.14,-117.19,-245.97,-0.16,33.64,21.57
3,20456,1,0.0,,,,,,,,
4,20458,0,0.0,,,,,,,,
5,20460,0,0.0,,,,,,,,
6,20461,1,0.0,,,,,,,,
0,20465,4,218.63,-641.97,766.36,67.14,-14.04,-61.04,31.26,16.32,-14.53
1,20477,5,-3.17,-712.77,170.17,-256.35,-1.22,18.92,5.21,43.25,5.60
2,20489,5,-461.91,-915.28,-176.88,-595.7,-418.09,-48.83,1.26,34.30,19.80
3,20505,0,0.0,,,,,,,,
4,20506,1,0.0,,,,,,,,
5,20508,0,0.0,,,,,,,,
6,20510,0,0.0,,,,,,,,
0,20513,5,139.65,-634.16,770.02,0.0,-186.16,-163.57,30.08,16.55,-15.30
1,20526,4,53.71,-937.87,172.61,15.26,-48.83,155.03,5.16,43.46,4.57
2,20538,4,101.81,-946.53,-25.02,-389.4,-174.56,-122.68,1.04,35.11,18.42
3,20549,0,0.0,,,,,,,,
4,20551,0,0.0,,,,,,,,
5,20553,0,0.0,,,,,,,,
6,20554,0,0.0,,,,,,,,
0,20558,4,1.95,-582.76,817.26,-2.44,-47.0,22.58,28.89,17.58,-14.72
1,20574,5,-6.47,-1038.21,159.91,34.79,121.46,-57.98,6.16,43.21,4.08
2,20586,4,-217.9,-1046.63,-52.12,-302.73,18.31,-195.31,0.68,35.80,17.09
3,20597,1,0.0,,,,,,,,
4,20599,0,0.0,,,,,,,,
5,20601,0,0.0,,,,,,,,
6,20602,1,0.0,,,,,,,,
0,20606,5,73.36,-541.14,801.88,88.5,92.77,69.58,29.49,17.75,-15.10
1,20619,4,-19.78,-962.16,172.24,1.22,-23.8,-74.46,5.58,43.51,3.45
2,20630,4,-161.5,-962.52,26.49,-261.84,345.46,-150.76,0.68,35.80,17.09
3,20641,0,0.0,,,,,,,,
4,20646,0,0.0,,,,,,,,
5,20648,0,0.0,,,,,,,,
6,20651,0,0.0,,,,,,,,
0,20654,3,92.65,-603.88,789.79,151.98,152.59,102.54,29.49,17.75,-15.10
1,20665,4,-18.07,-1027.83,170.29,107.42,-46.39,-109.86,5.33,43.41,3.17
2,20677,4,-96.8,-1039.31,-21.85,-248.41,317.38,-109.25,-1.01,36.50,16.43
3,20688,0,0.0,,,,,,,,
4,20690,0,0.0,,,,,,,,
5,20691,1,0.0,,,,,,,,
6,20694,0,0.0,,,,,,,,
0,20698,4,179.44,-607.42,769.78,107.42,119.63,71.41,30.82,16.86,-15.03
1,20709,4,-125.85,-953.25,183.23,31.13,69.58,-40.28,5.33,43.41,3.17
2,20724,4,-274.17,-967.41,29.79,-244.75,183.11,-51.27,-2.62,38.42,14.82
3,20737,0,0.0,,,,,,,,
4,20738,0,0.0,,,,,,,,
5,20740,0,0.0,,,,,,,,
6,20741,1,0.0,,,,,,,,
0,20745,4,172.36,-605.47,755.49,57.98,4.88,-10.99,30.98,17.18,-14.10
1,20757,4,-34.42,-970.7,185.42,54.32,4.88,56.76,4.37,43.62,5.16
2,20768,5,-128.54,-1003.54,77.88,-222.78,117.8,-25.63,-3.25,38.51,12.93
3,20781,0,0.0,,,,,,,,
4,20782,1,0.0,,,,,,,,
5,20784,0,0.0,,,,,,,,
6,20789,1,0.0,,,,,,,,
0,20793,4,152.22,-616.09,754.39,67.14,-73.85,2.44,30.04,18.26,-14.14
1,20805,4,-28.81,-964.48,184.08,32.96,20.75,65.92,4.91,43.10,3.23
2,20816,6,-203.74,-983.15,99.0,-200.81,-54.32,-28.08,-2.84,38.51,12.62
3,20829,0,0.0,,,,,,,,
4,20830,1,0.0,,,,,,,,
5,20832,0,0.0,,,,,,,,
6,20834,0,0.0,,,,,,,,
0,20837,5,144.78,-609.25,764.89,54.32,-42.72,-25.02,28.27,20.01,-14.55
1,20849,4,-31.37,-1017.7,181.64,64.7,8.54,67.75,5.15,43.47,3.56
2,20865,5,-146.24,-1001.71,107.3,-221.56,84.84,-9.16,-2.55,39.07,12.52
3,20877,0,0.0,,,,,,,,
4,20879,0,0.0,,,,,,,,
5,20880,0,0.0,,,,,,,,
6,20882,0,0.0,,,,,,,,
0,20885,5,98.02,-614.38,779.3,64.09,3.05,-46.39,28.1,21.33,-15.15
1,20897,4,-18.92,-1010.25,187.13,69.58,11.6,38.45,5.0,43.75,4.52
2,20910,4,-194.95,-1010.74,137.94,-259.4,115.97,-16.48,-2.83,39.15,10.79
3,20921,0,0.0,,,,,,,,
4,20923,0,0.0,,,,,,,,
5,20925,0,0.0,,,,,,,,
6,20926,0,0.0,,,,,,,,
0,20930,4,136.6,-610.96,767.09,86.06,55.54,-50.05,27.81,21.68,-14.43
1,20945,6,-47.73,-999.76,187.13,55.54,17.7,59.2,4.9,44.07,3.56
2,20958,4,-148.68,-974.49,127.32,-283.2,191.04,6.1,-3.25,39.79,10.40
3,20969,0,0.0,,,,,,,,
4,20971,0,0.0,,,,,,,,
5,20973,0,0.0,,,,,,,,
6,20974,0,0.0,,,,,,,,
0,20978,4,124.15,-611.57,755.74,227.05,-151.37,0.61,27.38,22.49,-14.95
1,20990,5,-15.99,-982.3,208.13,-102.54,17.7,165.41,5.21,44.10,4.13
2,21002,5,-151.98,-988.89,171.75,-343.02,85.45,45.17,-2.29,39.70,8.44
3,21018,0,0.0,,,,,,,,
4,21019,0,0.0,,,,,,,,
5,21021,0,0.0,,,,,,,,
6,21023,0,0.0,,,,,,,,
0,21026,4,126.34,-629.64,758.54,192.26,-95.83,-53.1,26.55,23.05,-15.43
1,21039,4,-86.91,-1141.36,209.11,-53.1,120.85,173.34,6.1,44.08,3.66
2,21051,4,-171.39,-1064.45,223.63,-426.03,126.34,90.33,-2.55,39.64,6.63
3,21062,0,0.0,,,,,,,,
4,21064,0,0.0,,,,,,,,
5,21065,1,0.0,,,,,,,,
6,21067,0,0.0,,,,,,,,
0,21071,4,44.43,-649.41,785.03,300.29,-9.77,-76.29,26.42,23.67,-14.77
1,21087,5,25.76,-1211.91,243.04,-180.05,10.38,79.96,6.8,44.64,2.17
2,21099,4,-160.28,-1095.34,263.79,-476.68,172.12,153.81,-2.36,40.04,4.63
3,21110,1,0.0,,,,,,,,
4,21112,0,0.0,,,,,,,,
5,21114,0,0.0,,,,,,,,
6,21115,1,0.0,,,,,,,,
0,21120,4,81.18,-688.23,777.22,521.24,-32.35,-38.45,26.64,24.77,-13.57
1,21132,4,44.43,-1189.33,272.34,-305.79,-31.13,67.14,7.42,44.49,-0.12
2,21144,4,-167.36,-1136.6,275.51,-529.17,178.83,206.3,-1.86,40.47,1.61
3,21159,0,0.0,,,,,,,,
4,21161,0,0.0,,,,,,,,
5,21163,0,0.0,,,,,,,,
6,21165,0,0.0,,,,,,,,
0,21168,5,92.41,-734.62,807.62,772.09,-65.31,-97.05,26.31,26.67,-13.56
1,21180,4,38.21,-1386.72,284.42,-549.32,-54.93,98.27,7.74,44.85,-1.75
2,21192,4,-153.69,-1342.16,254.64,-652.47,176.39,263.06,-0.04,41.08,-0.49
3,21204,0,0.0,,,,,,,,
4,21206,0,0.0,,,,,,,,
5,21208,0,0.0,,,,,,,,
6,21209,1,0.0,,,,,,,,
0,21213,4,82.64,-718.38,891.72,1192.63,-25.63,-111.69,26.17,28.87,-11.29
1,21225,4,-67.38,-1719.73,278.69,-980.83,-4.27,23.8,8.69,44.64,-5.20
2,21240,4,-179.57,-1583.74,107.79,-844.73,413.82,288.09,-0.04,41.08,-0.49
3,21252,0,0.0,,,,,,,,
4,21254,0,0.0,,,,,,,,
5,21255,0,0.0,,,,,,,,
6,21257,0,0.0,,,,,,,,
0,21260,5,70.68,-806.52,993.29,1998.29,566.41,-161.74,27.43,32.91,-8.45
1,21272,5,-109.37,-2016.6,153.93,-1964.11,247.19,-286.87,8.54,43.77,-11.17
2,21284,5,-30.27,-1614.26,-78.98,-1077.88,919.8,303.34,1.0,40.45,-4.08
3,21297,0,0.0,,,,,,,,
4,21302,0,0.0,,,,,,,,
5,21304,0,0.0,,,,,,,,
6,21306,0,0.0,,,,,,,,
0,21309,4,326.29,-1031.01,961.3,2565.31,808.11,-321.66,28.23,39.12,-1.59
1,21321,4,225.59,-1758.06,114.75,-2589.11,280.76,288.09,8.72,40.31,-22.12
2,21334,4,67.63,-1083.5,107.54,-1015.63,599.37,187.38,2.32,40.27,-8.37
3,21346,0,0.0,,,,,,,,
4,21347,0,0.0,,,,,,,,
5,21349,0,0.0,,,,,,,,
6,21350,1,0.0,,,,,,,,
0,21354,4,154.05,-737.92,509.64,1991.58,-327.15,-783.08,27.06,43.26,5.44
1,21366,3,-279.79,-528.69,-101.32,-2330.32,211.18,777.59,8.72,40.31,-22.12
2,21382,4,-78.12,-525.15,466.06,-496.22,-67.75,169.68,3.55,39.75,-12.84
3,21393,0,0.0,,,,,,,,
4,21395,0,0.0,,,,,,,,
5,21396,0,0.0,,,,,,,,
6,21398,0,0.0,,,,,,,,
0,21401,5,135.01,-2246.34,1639.53,1159.67,907.59,-388.79,24.45,46.23,10.79
1,21413,6,-101.56,294.68,-559.81,371.09,748.9,-630.49,11.1,35.17,-30.19
2,21426,5,-133.06,-141.6,-183.35,-17.7,396.73,-72.02,4.8,38.33,-15.36
3,21438,0,0.0,,,,,,,,
4,21440,0,0.0,,,,,,,,
5,21445,0,0.0,,,,,,,,
6,21447,0,0.0,,,,,,,,
0,21450,5,174.44,-102.66,582.52,-1078.49,397.34,-440.06,22.13,47.92,8.61
1,21463,4,192.87,-304.93,-358.64,1151.73,612.79,-187.99,12.48,33.26,-32.17
2,21475,5,88.38,-241.82,1.83,822.75,386.96,-89.11,5.83,38.24,-15.61
3,21487,0,0.0,,,,,,,,
4,21488,0,0.0,,,,,,,,
5,21490,0,0.0,,,,,,,,
6,21492,0,0.0,,,,,,,,
0,21495,4,242.31,-690.67,626.34,-1578.98,168.46,157.47,23.55,46.73,3.08
1,21508,4,-111.82,-340.45,-308.23,2085.57,148.93,-390.63,14.11,36.00,-29.88
2,21524,4,-13.92,-434.45,-37.96,1493.53,240.48,-390.01,4.88,40.55,-11.39
3,21535,1,0.0,,,,,,,,
4,21537,0,0.0,,,,,,,,
5,21539,0,0.0,,,,,,,,
6,21540,0,0.0,,,,,,,,
0,21544,5,191.28,-610.96,500.37,-2205.81,411.99,690.31,28.27,39.82,-6.36
1,21557,4,-223.75,-1022.46,-64.33,2440.19,6.1,-728.15,12.87,40.84,-23.51
2,21569,4,-100.95,-763.67,-41.26,1905.52,4.27,-574.34,3.06,42.60,-5.92
3,21580,0,0.0,,,,,,,,
4,21582,0,0.0,,,,,,,,
5,21584,0,0.0,,,,,,,,
6,21590,0,0.0,,,,,,,,
0,21594,4,153.93,-909.3,713.87,-2119.75,538.33,776.37,32.47,31.16,-9.42
1,21605,5,-20.63,-1395.75,139.65,2296.14,-1.22,-870.36,9.64,45.69,-15.09
2,21617,5,18.92,-1140.75,20.51,2228.39,-58.59,-783.69,-0.5,42.48,2.56
3,21629,0,0.0,,,,,,,,
4,21632,0,0.0,,,,,,,,
5,21633,0,0.0,,,,,,,,
6,21635,0,0.0,,,,,,,,
0,21638,4,300.9,-1227.66,909.06,-2007.45,488.89,1024.78,32.47,31.16,-9.42
1,21649,5,412.96,-1802.12,368.53,2218.02,-357.67,-850.22,3.76,46.46,-4.19
2,21665,5,65.55,-1589.97,114.75,2305.3,-552.37,-699.46,-3.08,38.95,11.23
3,21678,0,0.0,,,,,,,,
4,21680,0,0.0,,,,,,,,
5,21681,0,0.0,,,,,,,,
6,21683,0,0.0,,,,,,,,
0,21686,5,385.13,-1536.13,830.93,-1620.48,-325.32,1387.94,34.94,23.72,-11.01
1,21698,5,65.67,-1922.97,1021.36,1838.99,-930.18,-280.15,1.45,42.38,2.78
2,21710,5,19.78,-1886.72,420.29,1949.46,-1129.15,-653.08,-3.98,33.72,18.53
3,21723,0,0.0,,,,,,,,
4,21725,0,0.0,,,,,,,,
5,21726,1,0.0,,,,,,,,
6,21732,0,0.0,,,,,,,,
0,21735,5,150.76,-1878.42,311.89,-1260.38,-468.14,1139.53,35.25,17.00,-13.07
1,21747,5,-144.65,-1500.73,1552.0,1358.64,-773.32,-475.46,2.39,39.97,8.30
2,21760,5,-448.24,-1685.79,766.72,1253.66,-1143.19,-644.53,-2.56,29.11,24.99
3,21772,0,0.0,,,,,,,,
4,21774,0,0.0,,,,,,,,
5,21776,0,0.0,,,,,,,,
6,21777,0,0.0,,,,,,,,
0,21781,4,-414.06,-1608.64,-200.81,-401.61,237.43,1149.29,34.19,10.53,-13.79
1,21793,4,379.52,-880.25,1727.91,573.73,-774.54,-670.17,1.75,37.84,12.60
2,21810,4,-175.17,-1291.75,899.05,139.16,26.86,-86.67,-3.49,27.97,25.48
3,21821,0,0.0,,,,,,,,
4,21823,0,0.0,,,,,,,,
5,21824,1,0.0,,,,,,,,
6,21826,0,0.0,,,,,,,,
0,21829,5,-165.89,-1177.49,-223.88,144.04,108.64,79.35,34.07,6.70,-13.34
1,21841,6,-107.42,-2337.04,1524.17,-371.7,162.96,169.07,1.82,37.51,12.56
2,21854,5,-228.52,-1300.54,383.79,-722.05,213.62,238.65,-3.63,30.09,23.85
3,21866,0,0.0,,,,,,,,
4,21868,0,0.0,,,,,,,,
5,21869,0,0.0,,,,,,,,
6,21875,0,0.0,,,,,,,,
0,21878,5,724.85,-182.74,1589.11,863.65,-276.49,-206.91,34.99,7.14,-13.89
1,21891,5,-207.76,-1470.34,-315.92,-1120.61,-267.94,382.69,3.14,38.73,9.86
2,21903,5,-288.7,-1205.2,-253.05,-511.47,-432.74,-49.44,-2.89,31.47,22.86
3,21915,0,0.0,,,,,,,,
4,21917,0,0.0,,,,,,,,
5,21918,1,0.0,,,,,,,,
6,21920,0,0.0,,,,,,,,
0,21923,5,-277.95,-1195.8,1007.2,1246.34,-840.45,-370.48,34.56,10.50,-14.07
1,21937,4,8.06,-941.16,142.09,-972.9,131.23,595.09,5.42,41.63,5.71
2,21952,5,260.62,-1251.59,35.03,-578.0,-811.77,-24.41,-0.73,32.10,21.64
3,21964,0,0.0,,,,,,,,
4,21965,1,0.0,,,,,,,,
5,21967,0,0.0,,,,,,,,
6,21969,0,0.0,,,,,,,,
0,21972,5,49.8,-1105.59,759.4,6.1,-574.95,-343.02,31.02,14.89,-14.56
1,21985,4,125.24,-599.98,194.34,-55.54,30.52,286.87,6.51,42.42,4.00
2,21997,3,-135.99,-1025.27,-207.15,-541.38,-1027.83,-85.45,-0.73,32.10,21.64
3,22008,0,0.0,,,,,,,,
4,22009,0,0.0,,,,,,,,
5,22011,0,0.0,,,,,,,,
6,22013,0,0.0,,,,,,,,
0,22021,4,-171.39,-550.66,856.08,-12.21,-147.09,-87.28,28.93,16.03,-16.03
1,22033,4,146.24,-1199.58,101.2,154.42,0.0,7.32,6.29,42.68,3.43
2,22044,5,-33.69,-968.63,-138.55,-454.71,176.39,-156.25,1.84,32.76,19.17
3,22056,0,0.0,,,,,,,,
4,22059,0,0.0,,,,,,,,
5,22060,0,0.0,,,,,,,,
6,22062,0,0.0,,,,,,,,
0,22065,5,-1.34,-551.03,816.04,70.8,70.8,26.86,28.88,16.06,-16.02
1,22077,3,59.45,-1019.41,132.69,-39.67,31.74,-75.07,6.29,42.68,3.43
2,22088,4,-257.93,-1014.53,-123.78,-363.16,-115.36,-142.21,1.71,33.52,18.66
3,22104,0,0.0,,,,,,,,
4,22106,0,0.0,,,,,,,,
5,22108,0,0.0,,,,,,,,
6,22109,0,0.0,,,,,,,,
0,22113,4,-77.64,-526.98,807.98,166.02,172.12,205.08,28.49,15.65,-14.93
1,22125,4,57.37,-974.61,146.12,-7.32,-60.42,-229.49,6.64,43.23,1.61
2,22136,5,-179.93,-1043.58,-83.98,-413.21,668.33,-110.47,0.81,34.31,16.50
3,22149,0,0.0,,,,,,,,
4,22151,0,0.0,,,,,,,,
5,22152,1,0.0,,,,,,,,
6,22154,0,0.0,,,,,,,,
0,22157,5,182.01,-602.91,798.22,249.63,479.74,92.16,29.48,16.47,-14.54
1,22173,5,-87.65,-1036.87,146.0,62.87,-58.59,-240.48,5.62,43.02,1.71
2,22185,5,-196.29,-998.41,-54.81,-384.52,498.05,-50.05,-2.12,36.45,15.08
3,22198,0,0.0,,,,,,,,
4,22199,0,0.0,,,,,,,,
5,22201,0,0.0,,,,,,,,
6,22203,0,0.0,,,,,,,,
0,22206,4,244.14,-628.54,763.31,101.32,208.13,-90.33,33.24,14.82,-15.25
1,22218,4,-54.08,-934.94,164.92,-32.96,78.74,12.82,4.7,42.36,2.60
2,22231,4,-168.82,-946.78,43.7,-343.02,43.33,40.89,-4.05,38.23,13.68
3,22246,0,0.0,,,,,,,,
4,22248,0,0.0,,,,,,,,
5,22249,0,0.0,,,,,,,,
6,22251,0,0.0,,,,,,,,
0,22254,5,142.58,-642.58,763.55,32.96,-79.35,-90.33,33.23,15.49,-14.62
1,22266,6,-1.1,-935.3,173.58,23.19,-8.54,90.94,5.08,42.77,2.22
2,22279,4,-61.77,-971.31,100.59,-202.64,-123.9,26.86,-3.36,37.99,12.13
3,22290,1,0.0,,,,,,,,
4,22292,0,0.0,,,,,,,,
5,22294,0,0.0,,,,,,,,
6,22295,1,0.0,,,,,,,,
0,22299,4,128.66,-614.01,776.12,-40.28,-208.74,-40.28,31.7,16.54,-14.39
1,22316,4,-34.67,-971.56,167.36,50.05,54.93,130.0,4.83,42.98,1.76
2,22327,5,-180.66,-1012.7,65.06,-186.16,-351.56,18.31,-1.34,38.00,11.91
3,22339,0,0.0,,,,,,,,
4,22341,0,0.0,,,,,,,,
5,22342,0,0.0,,,,,,,,
6,22344,0,0.0,,,,,,,,
0,22347,5,74.58,-564.21,790.65,-20.14,-184.33,-29.91,28.23,18.69,-13.68
1,22360,5,21.12,-1040.65,151.25,76.9,8.54,92.77,5.63,43.41,1.11
2,22372,4,-175.9,-1026.25,68.12,-240.48,-69.58,6.71,-1.38,37.71,11.52
3,22383,1,0.0,,,,,,,,
4,22389,0,0.0,,,,,,,,
5,22391,0,0.0,,,,,,,,
6,22392,0,0.0,,,,,,,,
0,22396,5,38.33,-576.9,805.05,61.04,-137.33,-39.06,26.64,19.62,-15.83
1,22409,4,20.63,-1005.62,169.56,36.62,-17.7,100.1,5.63,42.43,1.33
2,22420,5,-143.43,-990.11,130.62,-242.31,3.66,14.65,-1.14,37.08,10.45
3,22432,0,0.0,,,,,,,,
4,22433,1,0.0,,,,,,,,
5,22435,0,0.0,,,,,,,,
6,22437,0,0.0,,,,,,,,
0,22440,6,-13.06,-615.11,782.96,87.89,-170.9,7.32,24.93,20.75,-14.76
1,22453,4,46.02,-971.68,173.46,63.48,-28.69,57.98,6.65,43.81,1.89
2,22469,4,-142.58,-1027.34,79.96,-283.81,100.71,-31.74,-0.77,37.92,8.76
3,22480,0,0.0,,,,,,,,
4,22482,0,0.0,,,,,,,,
5,22483,1,0.0,,,,,,,,
6,22486,0,0.0,,,,,,,,
0,22489,5,72.51,-608.76,791.5,92.77,-23.8,-26.25,26.29,20.39,-14.58
1,22501,5,-21.85,-967.65,190.06,-97.05,86.67,85.45,6.52,42.90,0.87
2,22513,4,-159.67,-979.74,197.63,-302.12,98.27,151.37,-1.27,37.85,7.90
3,22525,0,0.0,,,,,,,,
4,22526,0,0.0,,,,,,,,
5,22529,0,0.0,,,,,,,,
6,22534,0,0.0,,,,,,,,
0,22538,4,33.08,-587.4,793.7,79.96,-45.78,-68.36,25.52,20.34,-16.33
1,22550,4,67.14,-1053.22,180.66,-3.05,6.71,95.21,6.91,43.36,0.51
2,22561,5,-149.41,-1093.02,167.48,-347.9,68.36,40.28,-0.61,38.23,6.23
3,22574,0,0.0,,,,,,,,
4,22575,1,0.0,,,,,,,,
5,22577,0,0.0,,,,,,,,
6,22579,0,0.0,,,,,,,,
0,22582,4,39.43,-609.86,825.2,184.94,23.8,-75.07,26.32,21.00,-15.53
1,22594,4,-15.5,-1110.23,198.73,-101.32,76.9,120.24,7.15,43.26,0.44
2,22609,6,-268.8,-1131.96,197.63,-476.68,153.2,101.32,-0.67,39.20,4.13
3,22622,0,0.0,,,,,,,,
4,22624,0,0.0,,,,,,,,
5,22625,1,0.0,,,,,,,,
6,22627,0,0.0,,,,,,,,
0,22630,5,76.9,-596.44,880.49,432.13,-56.76,-97.05,26.65,21.41,-15.69
1,22642,5,142.7,-1420.65,240.11,-171.51,40.28,314.94,7.58,44.20,-0.71
2,22654,5,-233.4,-1450.81,172.12,-617.07,285.03,191.04,-0.67,39.20,4.13
3,22666,0,0.0,,,,,,,,
4,22668,0,0.0,,,,,,,,
5,22669,0,0.0,,,,,,,,
6,22671,0,0.0,,,,,,,,
0,22674,4,-40.41,-613.53,1064.94,938.11,-267.33,-84.23,26.65,21.41,-15.69
1,22689,4,-31.13,-1907.47,170.78,-810.55,4.88,289.31,9.84,44.10,-3.14
2,22702,4,-234.99,-1770.51,57.86,-914.92,654.3,228.27,-0.81,39.07,1.56
3,22714,0,0.0,,,,,,,,
4,22715,0,0.0,,,,,,,,
5,22717,0,0.0,,,,,,,,
6,22719,0,0.0,,,,,,,,
0,22722,4,-103.15,-708.62,1132.93,2021.48,333.25,-179.44,25.89,24.10,-14.01
1,22734,3,14.53,-2176.03,33.45,-1743.16,58.59,-192.87,9.84,44.10,-3.14
2,22746,4,-89.48,-1758.18,-157.47,-1295.78,917.97,251.46,0.65,39.88,-2.69
3,22761,0,0.0,,,,,,,,
4,22763,0,0.0,,,,,,,,
5,22765,0,0.0,,,,,,,,
6,22766,0,0.0,,,,,,,,
0,22770,4,90.33,-780.03,1117.68,2716.67,1019.29,-108.03,27.04,28.81,-11.62
1,22782,5,164.18,-1735.35,-240.72,-2761.23,257.57,-255.13,9.42,43.63,-9.09
2,22795,4,-81.67,-1047.36,-104.13,-1192.02,1145.63,263.06,2.05,39.18,-7.36
3,22807,0,0.0,,,,,,,,
4,22808,0,0.0,,,,,,,,
5,22810,0,0.0,,,,,,,,
6,22812,0,0.0,,,,,,,,
0,22815,4,145.14,-1081.3,599.49,2199.71,-4.88,-853.27,29.27,35.72,-4.82
1,22832,4,-519.04,-308.84,-59.2,-2286.99,405.27,567.63,9.36,40.20,-18.15
2,22844,4,-74.22,-438.96,539.55,-768.43,-0.61,103.76,2.93,38.05,-12.55
3,22855,0,0.0,,,,,,,,
4,22857,0,0.0,,,,,,,,
5,22859,0,0.0,,,,,,,,
6,22860,0,0.0,,,,,,,,
0,22864,4,269.04,-1060.42,1126.83,510.25,1632.69,-452.88,28.58,40.12,3.08
1,22877,4,96.31,0.24,-664.18,311.28,767.82,-1155.4,11.65,36.41,-26.42
2,22889,4,-3.54,-99.73,-269.04,23.8,708.01,-231.32,4.59,37.08,-14.73
3,22904,0,0.0,,,,,,,,
4,22906,0,0.0,,,,,,,,
5,22907,0,0.0,,,,,,,,
6,22909,0,0.0,,,,,,,,
0,22913,5,151.86,-69.21,537.23,-700.68,79.35,-397.34,27.0,42.64,5.37
1,22925,5,197.14,-140.14,-432.74,781.86,374.15,-55.54,11.63,36.40,-25.76
2,22937,5,168.7,-159.3,-45.41,740.36,252.08,-194.09,4.28,37.18,-12.68
3,22949,0,0.0,,,,,,,,
4,22950,1,0.0,,,,,,,,
5,22952,0,0.0,,,,,,,,
6,22955,0,0.0,,,,,,,,
0,22958,5,221.19,-382.93,581.54,-1131.59,62.26,460.21,25.5,42.10,3.74
1,22974,4,-60.79,-407.1,-272.95,1641.24,-204.47,-378.42,12.38,38.44,-24.91
2,22986,4,19.9,-447.02,-29.91,1408.08,43.33,-522.46,3.03,38.44,-10.44
3,22999,0,0.0,,,,,,,,
4,23000,0,0.0,,,,,,,,
5,23002,0,0.0,,,,,,,,
6,23003,1,0.0,,,,,,,,
0,23007,4,-116.21,-577.27,649.29,-1812.74,196.53,725.71,27.69,40.25,-1.10
1,23019,4,-317.02,-879.03,-137.33,2130.13,-10.38,-590.82,9.73,41.08,-19.70
2,23031,4,-154.91,-705.57,-29.79,1851.81,-61.65,-615.84,1.05,39.15,-5.26
3,23047,1,0.0,,,,,,,,
4,23049,0,0.0,,,,,,,,
5,23051,0,0.0,,,,,,,,
6,23052,1,0.0,,,,,,,,
0,23056,4,-4.27,-871.83,781.01,-2073.36,590.82,422.97,30.71,34.95,-5.82
1,23068,4,229.0,-1318.36,60.67,2210.08,388.79,-730.59,6.87,43.04,-12.59
2,23080,5,236.82,-1237.43,22.46,2167.36,26.86,-703.13,-2.56,39.04,1.40
3,23092,0,0.0,,,,,,,,
4,23094,0,0.0,,,,,,,,
5,23096,0,0.0,,,,,,,,
6,23097,0,0.0,,,,,,,,
0,23101,4,117.8,-1118.9,917.6,-1917.11,486.45,719.6,34.33,28.53,-8.96
1,23124,6,414.06,-1935.42,658.94,1885.99,-312.5,-634.77,3.43,44.36,-5.25
2,23137,5,124.88,-1811.16,228.76,2102.05,-440.67,-567.63,-5.41,37.11,10.13
3,23149,0,0.0,,,,,,,,
4,23151,0,0.0,,,,,,,,
5,23152,1,0.0,,,,,,,,
6,23154,0,0.0,,,,,,,,
0,23157,5,49.93,-1616.94,671.88,-1234.13,-310.67,897.22,37.51,21.70,-11.89
1,23171,4,193.6,-1716.8,1080.57,1297.0,-519.41,-288.09,1.06,43.29,1.07
2,23183,4,-46.26,-1689.33,512.94,1685.79,-1266.48,-545.04,-6.4,33.23,17.81
3,23198,0,0.0,,,,,,,,
4,23200,0,0.0,,,,,,,,
5,23202,0,0.0,,,,,,,,
6,23203,0,0.0,,,,,,,,
0,23207,5,141.48,-1667.24,400.76,-924.07,-122.07,1087.65,37.79,15.86,-14.73
1,23220,4,292.85,-1245.0,1066.16,1188.35,-897.22,-516.97,-0.02,41.78,6.52
2,23232,4,-210.45,-1434.45,521.36,918.58,-606.69,-322.27,-5.65,29.68,23.21
3,23243,1,0.0,,,,,,,,
4,23245,0,0.0,,,,,,,,
5,23247,0,0.0,,,,,,,,
6,23248,1,0.0,,,,,,,,
0,23252,5,-385.01,-1423.46,-25.76,-481.57,-265.5,1101.07,38.06,10.60,-14.26
1,23269,4,-128.17,-1040.77,1523.44,631.1,-769.65,-211.79,-0.66,39.95,11.01
2,23281,4,-194.34,-1322.63,706.42,115.97,-128.17,-66.53,-5.81,28.83,25.43
3,23292,1,0.0,,,,,,,,
4,23294,0,0.0,,,,,,,,
5,23297,0,0.0,,,,,,,,
6,23298,1,0.0,,,,,,,,
0,23302,4,-288.45,-1001.59,-242.92,688.48,220.95,-296.02,37.68,7.40,-14.75
1,23314,4,-30.15,-439.94,649.05,-1059.57,335.69,-40.28,-0.78,40.04,10.90
2,23326,4,-187.99,-1077.88,213.87,-700.68,45.17,196.53,-5.87,30.32,24.05
3,23342,0,0.0,,,,,,,,
4,23344,0,0.0,,,,,,,,
5,23346,0,0.0,,,,,,,,
6,23347,0,0.0,,,,,,,,
0,23351,4,911.99,172.36,1034.3,504.15,214.23,-535.89,38.44,9.23,-14.05
1,23363,4,-2.81,-895.02,181.15,-1372.07,81.79,398.56,-0.73,40.67,6.76
2,23374,5,-293.58,-1246.09,-21.12,-620.73,40.89,26.86,-5.54,31.87,21.95
3,23387,0,0.0,,,,,,,,
4,23389,0,0.0,,,,,,,,
5,23390,0,0.0,,,,,,,,
6,23392,0,0.0,,,,,,,,
0,23395,5,92.53,-1136.96,996.46,855.71,-339.36,-45.78,39.37,12.78,-13.96
1,23411,5,-140.26,-860.6,229.0,-552.98,113.53,401.0,0.66,43.69,2.59
2,23424,4,155.76,-1302.25,233.4,-858.15,-260.62,51.27,-5.19,32.93,19.13
3,23436,0,0.0,,,,,,,,
4,23437,0,0.0,,,,,,,,
5,23439,0,0.0,,,,,,,,
6,23441,0,0.0,,,,,,,,
0,23444,4,125.24,-803.47,919.56,130.62,-127.56,-230.1,39.16,14.04,-14.61
1,23456,4,-61.04,-1246.7,88.75,151.98,134.89,-29.91,1.16,43.74,3.08
2,23469,3,-121.83,-823.73,-137.57,-632.93,-682.37,-184.94,-5.19,32.93,19.13
3,23483,1,0.0,,,,,,,,
4,23485,0,0.0,,,,,,,,
5,23487,0,0.0,,,,,,,,
6,23488,1,0.0,,,,,,,,
0,23492,4,43.7,-573.24,823.97,66.53,-84.84,-75.68,39.1,13.98,-14.22
1,23504,4,77.15,-934.08,165.77,-59.81,20.75,67.75,0.76,44.21,2.19
2,23516,5,26.73,-912.72,-21.73,-470.58,575.56,-112.92,-4.85,35.47,18.16
3,23528,0,0.0,,,,,,,,
4,23530,0,0.0,,,,,,,,
5,23531,0,0.0,,,,,,,,
6,23533,0,0.0,,,,,,,,
0,23536,5,202.03,-618.77,778.81,72.02,-43.95,37.23,38.22,15.44,-14.82
1,23548,5,8.79,-1006.59,163.7,30.52,16.48,6.71,0.76,44.21,2.19
2,23564,4,-73.85,-1030.15,-30.4,-307.01,-12.82,-147.71,-4.7,36.00,16.61
3,23575,0,0.0,,,,,,,,
4,23577,0,0.0,,,,,,,,
5,23578,1,0.0,,,,,,,,
6,23580,0,0.0,,,,,,,,
0,23584,4,125.37,-572.88,827.27,49.44,36.62,65.31,37.11,16.49,-15.11
1,23596,5,-39.67,-1010.25,175.05,4.27,20.14,-49.44,1.0,43.93,1.81
2,23608,5,-266.36,-1026.73,-10.01,-262.45,53.71,-94.6,-5.24,36.11,15.88
3,23620,0,0.0,,,,,,,,
4,23621,1,0.0,,,,,,,,
5,23627,0,0.0,,,,,,,,
6,23629,0,0.0,,,,,,,,
0,23647,5,196.66,-558.59,793.95,97.05,-43.95,65.31,36.74,17.22,-14.60
1,23662,4,-92.29,-989.38,183.11,38.45,50.05,61.04,-0.21,43.75,2.10
2,23673,5,-213.99,-1011.72,-7.08,-230.1,-62.26,-17.09,-5.36,36.87,12.99
3,23686,0,0.0,,,,,,,,
4,23687,1,0.0,,,,,,,,
5,23689,0,0.0,,,,,,,,
6,23691,0,0.0,,,,,,,,
0,23694,5,134.89,-607.91,785.89,100.71,-123.9,-21.36,35.35,18.23,-14.25
1,23706,5,-4.76,-975.34,182.86,-1.22,37.23,93.99,1.05,44.85,1.16
2,23723,3,-155.27,-1000.37,39.67,-263.67,-14.65,18.92,-5.36,36.87,12.99
3,23733,0,0.0,,,,,,,,
4,23735,0,0.0,,,,,,,,
5,23736,1,0.0,,,,,,,,
6,23738,0,0.0,,,,,,,,
0,23742,4,104.25,-589.84,778.56,81.18,-67.14,-40.28,33.8,19.60,-15.37
1,23753,5,10.38,-994.26,180.79,15.26,9.77,72.02,1.44,44.36,-0.02
2,23766,4,-148.07,-987.79,62.13,-277.71,31.74,4.27,-5.08,37.04,12.67
3,23778,0,0.0,,,,,,,,
4,23779,0,0.0,,,,,,,,
5,23781,0,0.0,,,,,,,,
6,23782,1,0.0,,,,,,,,
0,23786,4,74.58,-600.22,775.39,83.62,-42.72,-35.4,34.02,19.91,-16.10
1,23802,3,26.98,-1017.94,182.13,23.8,-15.26,59.81,1.44,44.36,-0.02
2,23813,5,-137.45,-1008.3,99.37,-281.98,135.5,-3.66,-5.51,37.12,11.41
3,23825,0,0.0,,,,,,,,
4,23827,0,0.0,,,,,,,,
5,23828,0,0.0,,,,,,,,
6,23830,0,0.0,,,,,,,,
0,23833,5,47.36,-612.92,782.47,86.06,42.11,-35.4,33.14,20.30,-14.88
1,23845,4,13.92,-1054.08,193.6,46.39,-36.62,-7.32,1.51,44.35,0.07
2,23858,4,-125.85,-1008.54,136.6,-271.61,239.26,0.0,-5.44,37.67,9.83
3,23873,0,0.0,,,,,,,,
4,23875,0,0.0,,,,,,,,
5,23876,1,0.0,,,,,,,,
6,23878,0,0.0,,,,,,,,
0,23882,4,79.1,-626.95,766.11,106.81,84.23,7.32,33.18,20.74,-16.02
1,23894,5,-2.32,-978.88,184.45,39.67,-6.1,-48.83,1.68,44.21,-0.11
2,23906,4,-124.15,-940.19,113.04,-276.49,126.34,0.61,-6.45,38.82,9.56
3,23918,0,0.0,,,,,,,,
4,23919,0,0.0,,,,,,,,
5,23921,0,0.0,,,,,,,,
6,23923,0,0.0,,,,,,,,
0,23926,4,136.84,-625.37,747.07,119.63,-1.22,-53.71,32.84,21.28,-15.15
1,23943,4,-27.59,-956.79,212.16,-70.8,7.32,99.49,1.4,44.74,1.86
2,23954,5,-170.41,-1030.64,156.49,-296.63,6.1,17.7,-6.37,39.38,7.35
3,23966,0,0.0,,,,,,,,
4,23968,0,0.0,,,,,,,,
5,23969,0,0.0,,,,,,,,
6,23971,0,0.0,,,,,,,,
0,23974,6,112.06,-623.17,768.68,145.26,-12.21,-61.65,33.26,22.18,-15.03
1,23987,5,7.93,-978.76,226.68,-89.72,62.87,119.63,1.54,44.57,-0.59
2,23999,4,-125.12,-985.72,216.55,-337.52,8.54,31.13,-6.14,39.03,6.18
3,24010,1,0.0,,,,,,,,
4,24016,0,0.0,,,,,,,,
5,24018,0,0.0,,,,,,,,
6,24019,0,0.0,,,,,,,,
0,24024,4,100.59,-635.5,782.1,210.57,-9.16,-39.06,33.01,22.49,-15.47
1,24035,5,31.86,-1121.34,233.03,-53.71,13.43,111.08,2.09,44.96,-1.15
2,24047,5,-209.59,-1066.53,209.11,-418.7,43.95,88.5,-6.13,39.15,4.46
3,24059,0,0.0,,,,,,,,
4,24060,1,0.0,,,,,,,,
5,24062,0,0.0,,,,,,,,
6,24065,0,0.0,,,,,,,,
0,24068,5,127.93,-642.58,787.6,344.24,-78.12,-75.07,32.67,23.50,-14.78
1,24080,4,29.42,-1163.21,270.87,-213.01,-26.86,213.01,2.76,45.47,-2.61
2,24096,4,-155.15,-1178.22,232.67,-523.68,219.12,164.18,-5.54,39.62,3.47
3,24108,1,0.0,,,,,,,,
4,24110,0,0.0,,,,,,,,
5,24112,0,0.0,,,,,,,,
6,24113,1,0.0,,,,,,,,
0,24117,4,108.28,-669.43,850.1,675.05,-101.32,-45.17,31.65,25.78,-14.42
1,24129,4,80.81,-1415.89,262.57,-424.8,-65.31,131.23,3.49,45.15,-3.20
2,24141,4,-131.35,-1373.05,199.22,-660.4,228.88,228.27,-4.68,39.93,0.77
3,24153,0,0.0,,,,,,,,
4,24155,0,0.0,,,,,,,,
5,24160,0,0.0,,,,,,,,
6,24162,0,0.0,,,,,,,,
0,24165,5,-48.1,-705.2,862.79,1271.36,-6.71,-18.92,31.51,28.25,-12.72
1,24177,5,172.24,-1831.91,188.35,-1034.55,-22.58,-39.06,3.8,44.80,-5.51
2,24189,6,-110.6,-1690.67,20.87,-927.12,401.0,252.69,-4.17,39.78,-3.31
3,24202,0,0.0,,,,,,,,
4,24204,0,0.0,,,,,,,,
5,24205,0,0.0,,,,,,,,
6,24207,0,0.0,,,,,,,,
0,24210,5,123.17,-839.72,1099.12,2043.46,255.13,-218.51,32.59,32.34,-10.28
1,24222,5,-369.63,-2164.55,89.72,-1938.48,214.23,-47.0,4.21,43.75,-10.55
2,24239,5,-360.23,-1644.65,-169.8,-1208.5,711.67,191.65,-2.67,39.88,-8.39
3,24251,0,0.0,,,,,,,,
4,24253,0,0.0,,,,,,,,
5,24254,0,0.0,,,,,,,,
6,24256,0,0.0,,,,,,,,
0,24259,5,330.08,-919.31,989.5,2643.43,668.33,-763.55,32.65,38.67,-4.03
1,24271,5,-127.32,-1597.66,-19.41,-2755.13,531.62,377.81,5.44,41.04,-19.52
2,24284,5,-43.7,-944.82,75.56,-1004.03,950.32,39.67,-1.98,38.71,-12.59
3,24296,0,0.0,,,,,,,,
4,24298,0,0.0,,,,,,,,
5,24303,0,0.0,,,,,,,,
6,24305,0,0.0,,,,,,,,
0,24308,4,88.99,-1041.63,531.74,2095.34,220.95,-842.29,31.79,42.80,4.49
1,24321,4,-55.66,-291.02,-29.91,-2238.16,550.54,481.57,8.39,35.84,-28.75
2,24333,4,68.24,-464.97,552.61,-515.75,380.86,166.02,0.17,37.74,-14.78
3,24344,1,0.0,,,,,,,,
4,24346,0,0.0,,,,,,,,
5,24348,0,0.0,,,,,,,,
6,24349,1,0.0,,,,,,,,
0,24353,4,521.36,-919.92,1094.24,335.69,1161.5,-616.46,28.71,45.84,9.70
1,24366,4,121.7,368.16,-731.45,297.24,618.9,-652.47,9.66,32.96,-32.60
2,24382,4,223.63,-66.89,-306.27,187.99,355.83,-100.71,0.23,37.82,-15.30
3,24393,0,0.0,,,,,,,,
4,24395,0,0.0,,,,,,,,
5,24396,0,0.0,,,,,,,,
6,24398,0,0.0,,,,,,,,
0,24401,6,61.4,-61.16,559.69,-932.62,258.18,-422.97,26.23,45.64,7.96
1,24414,5,421.26,-20.51,-398.32,991.21,400.39,-166.02,11.38,35.27,-29.21
2,24426,4,222.17,-218.38,103.27,831.3,323.49,-70.19,0.23,37.82,-15.30
3,24437,0,0.0,,,,,,,,
4,24438,1,0.0,,,,,,,,
5,24440,0,0.0,,,,,,,,
6,24442,0,0.0,,,,,,,,
0,24450,4,-49.56,-456.42,495.12,-1834.11,-20.14,494.38,26.83,44.03,2.26
1,24462,3,-142.7,-684.2,-177.98,2109.37,-74.46,-536.5,11.38,35.27,-29.21
2,24473,4,11.6,-503.17,-42.97,1458.13,-25.63,-421.75,0.18,38.81,-13.24
3,24485,0,0.0,,,,,,,,
4,24486,0,0.0,,,,,,,,
5,24488,0,0.0,,,,,,,,
6,24491,0,0.0,,,,,,,,
0,24494,3,117.8,-710.69,527.22,-1988.53,372.92,762.94,26.83,44.03,2.26
1,24505,4,-64.7,-941.77,-63.35,2344.36,-55.54,-647.58,9.51,40.08,-23.79
2,24521,4,-26.49,-717.53,-3.17,1796.26,-247.8,-558.47,-2.17,40.09,-8.87
3,24532,0,0.0,,,,,,,,
4,24535,0,0.0,,,,,,,,
5,24537,0,0.0,,,,,,,,
6,24538,0,0.0,,,,,,,,
0,24542,4,-47.24,-882.45,688.35,-2148.44,435.18,756.23,30.77,39.72,-4.53
1,24554,4,133.67,-1411.13,146.61,2337.04,14.04,-780.64,6.93,44.14,-16.94
2,24566,4,93.75,-1146.24,32.96,2126.46,-193.48,-654.3,-4.31,40.63,-2.26
3,24578,0,0.0,,,,,,,,
4,24580,0,0.0,,,,,,,,
5,24582,0,0.0,,,,,,,,
6,24583,0,0.0,,,,,,,,
0,24590,5,143.8,-1165.41,846.44,-1945.8,382.08,1024.17,34.28,32.02,-8.72
1,24602,5,468.38,-1624.63,395.02,2117.31,-402.22,-619.51,3.33,45.62,-8.70
2,24615,5,31.13,-1554.08,177.73,2178.95,-529.79,-462.04,-6.49,39.01,5.80
3,24627,0,0.0,,,,,,,,
4,24629,0,0.0,,,,,,,,
5,24630,1,0.0,,,,,,,,
6,24632,0,0.0,,,,,,,,
0,24635,5,230.71,-1511.6,778.93,-1702.27,-135.5,1171.26,36.72,25.01,-12.79
1,24648,4,130.37,-1820.43,859.74,1892.7,-723.27,-429.08,-0.27,44.71,-1.86
2,24664,5,-15.87,-1682.62,335.82,1862.79,-963.75,-501.71,-8.58,36.21,14.54
3,24676,0,0.0,,,,,,,,
4,24678,0,0.0,,,,,,,,
5,24679,1,0.0,,,,,,,,
6,24681,0,0.0,,,,,,,,
0,24685,4,201.29,-1487.43,486.69,-1271.36,-393.68,1074.83,38.0,17.08,-13.93
1,24697,4,-188.84,-1564.09,1112.92,1293.95,-768.43,-333.86,-0.54,42.61,7.01
2,24710,4,-520.39,-1586.55,411.5,1198.73,-1058.96,-492.55,-7.42,31.56,21.00
3,24722,0,0.0,,,,,,,,
4,24723,0,0.0,,,,,,,,
5,24725,0,0.0,,,,,,,,
6,24726,1,0.0,,,,,,,,
0,24734,4,-149.66,-1284.3,194.95,-582.89,-114.14,1041.26,37.05,11.01,-15.37
1,24747,4,312.38,-921.63,1333.98,700.68,-821.53,-245.36,-0.83,40.64,12.15
2,24759,4,-88.13,-1381.71,821.9,433.96,-367.43,-165.41,-6.42,28.56,26.37
3,24771,0,0.0,,,,,,,,
4,24772,0,0.0,,,,,,,,
5,24774,0,0.0,,,,,,,,
6,24776,0,0.0,,,,,,,,
0,24779,4,-405.76,-1150.76,-284.42,43.33,-274.66,97.66,36.33,7.48,-14.59
1,24792,4,-7.57,-1581.3,1402.71,-65.92,-37.23,466.92,-0.17,38.83,13.99
2,24808,4,-214.23,-1231.93,515.01,-579.83,-258.79,171.51,-5.33,28.81,25.57
3,24819,0,0.0,,,,,,,,
4,24821,0,0.0,,,,,,,,
5,24823,0,0.0,,,,,,,,
6,24824,0,0.0,,,,,,,,
0,24828,5,338.62,-903.32,894.9,976.56,175.17,-997.31,35.39,7.29,-15.08
1,24841,4,465.58,-1257.69,-693.73,-296.02,599.37,-36.62,1.14,41.00,11.55
2,24853,4,435.91,-1059.57,-1089.6,-572.51,-124.51,270.39,-5.19,30.76,23.75
3,24864,1,0.0,,,,,,,,
4,24866,0,0.0,,,,,,,,
5,24868,0,0.0,,,,,,,,
6,24869,0,0.0,,,,,,,,
0,24873,5,999.76,86.67,675.29,1096.19,-106.81,261.84,35.28,11.43,-15.98
1,24889,5,-29.79,-1030.88,11.96,-1274.41,-653.08,226.44,0.4,42.16,8.26
2,24901,5,-33.33,-1013.43,-52.12,-720.83,-282.59,-10.38,-4.16,32.68,23.30
3,24913,0,0.0,,,,,,,,
4,24915,0,0.0,,,,,,,,
5,24916,0,0.0,,,,,,,,
6,24919,0,0.0,,,,,,,,
0,24922,5,-1384.16,-1374.27,1171.26,661.01,-100.71,-197.75,36.18,13.53,-15.78
1,24935,4,463.75,-736.94,294.19,-637.21,-9.77,20.14,2.34,44.42,3.94
2,24946,5,412.35,-1341.43,59.57,-806.88,-126.34,62.87,-3.02,34.00,19.93
3,24963,0,0.0,,,,,,,,
4,24964,1,0.0,,,,,,,,
5,24966,0,0.0,,,,,,,,
6,24968,0,0.0,,,,,,,,
0,24971,5,57.74,-695.19,818.24,32.96,-17.7,-133.67,35.77,15.22,-15.09
1,24983,4,20.02,-837.04,166.99,-66.53,31.13,-4.27,0.68,43.98,3.82
2,24995,4,-428.96,-934.57,-192.38,-595.7,-331.42,-51.88,-2.19,34.80,19.79
3,25007,1,0.0,,,,,,,,
4,25009,0,0.0,,,,,,,,
5,25011,0,0.0,,,,,,,,
6,25012,0,0.0,,,,,,,,
0,25016,4,54.57,-611.57,789.55,42.72,-118.41,-86.06,34.97,15.86,-15.28
1,25032,4,36.38,-952.88,166.5,-10.38,82.4,114.75,1.81,44.96,2.65
2,25043,6,49.68,-960.82,-56.15,-403.44,12.21,-141.6,-2.81,36.04,16.71
3,25056,0,0.0,,,,,,,,
4,25057,1,0.0,,,,,,,,
5,25059,0,0.0,,,,,,,,
6,25061,0,0.0,,,,,,,,
0,25064,5,-77.03,-567.26,830.08,29.91,-65.31,21.97,34.57,16.39,-15.92
1,25076,4,102.54,-1008.79,141.6,17.09,9.77,-17.09,1.43,44.98,1.20
2,25089,3,-62.5,-1019.41,-42.72,-346.07,-30.52,-211.18,-2.81,36.04,16.71
3,25103,0,0.0,,,,,,,,
4,25105,0,0.0,,,,,,,,
5,25107,0,0.0,,,,,,,,
6,25108,0,0.0,,,,,,,,
0,25112,4,42.36,-557.5,817.14,75.07,83.01,73.85,33.64,17.18,-14.92
1,25123,5,15.01,-992.68,166.26,15.87,3.05,-84.23,1.23,44.53,1.77
2,25136,4,-199.46,-984.86,15.01,-330.81,271.61,-148.93,-3.65,36.02,15.89
3,25148,0,0.0,,,,,,,,
4,25149,0,0.0,,,,,,,,
5,25151,0,0.0,,,,,,,,
6,25153,0,0.0,,,,,,,,
0,25156,4,112.18,-603.76,805.79,44.56,76.9,-3.66,33.91,17.59,-16.04
1,25172,4,-17.7,-960.82,180.42,29.91,61.04,-15.87,1.23,44.53,1.77
2,25183,5,-134.89,-1033.08,66.89,-293.58,158.69,-93.99,-4.63,37.26,14.51
3,25195,0,0.0,,,,,,,,
4,25197,0,0.0,,,,,,,,
5,25198,0,0.0,,,,,,,,
6,25200,0,0.0,,,,,,,,
0,25203,5,91.55,-572.14,814.94,3.66,79.96,-42.11,33.95,17.87,-14.53
1,25216,5,12.08,-1018.43,169.07,54.32,10.38,-15.87,0.67,44.93,1.14
2,25228,4,-124.51,-962.16,108.03,-244.75,81.79,-70.8,-5.51,37.71,13.02
3,25239,1,0.0,,,,,,,,
4,25245,0,0.0,,,,,,,,
5,25247,0,0.0,,,,,,,,
6,25248,0,0.0,,,,,,,,
0,25252,4,53.83,-553.1,802.61,10.38,30.52,-13.43,33.63,17.10,-14.53
1,25264,5,13.18,-1031.86,163.33,130.0,-31.74,-6.71,0.78,44.82,1.23
2,25276,5,-121.22,-991.58,123.29,-188.6,93.38,-75.68,-5.81,38.26,11.30
3,25288,0,0.0,,,,,,,,
4,25289,1,0.0,,,,,,,,
5,25291,0,0.0,,,,,,,,
6,25293,0,0.0,,,,,,,,
0,25296,6,59.94,-578.49,807.25,35.4,56.15,7.32,34.84,17.38,-15.82
1,25309,4,17.21,-1019.29,173.34,87.89,34.18,-25.63,1.07,44.70,0.71
2,25324,5,-155.88,-987.3,125.24,-144.04,47.0,-98.27,-7.69,38.70,10.24
3,25336,0,0.0,,,,,,,,
4,25338,0,0.0,,,,,,,,
5,25339,0,0.0,,,,,,,,
6,25341,0,0.0,,,,,,,,
0,25345,5,75.32,-563.35,803.47,46.39,83.62,26.25,34.33,18.21,-15.37
1,25357,5,-1.46,-1006.71,165.77,147.09,-1.22,-36.62,1.2,44.82,1.39
2,25369,4,-191.77,-994.26,123.17,-160.52,43.95,-89.72,-7.24,39.00,10.53
3,25381,0,0.0,,,,,,,,
4,25382,0,0.0,,,,,,,,
5,25384,0,0.0,,,,,,,,
6,25385,2,0.0,,,,,,,,
0,25394,4,76.54,-562.62,799.07,57.37,61.04,1.83,34.23,18.58,-14.42
1,25405,5,-12.94,-988.04,169.07,119.63,7.32,7.32,0.62,44.59,1.75
2,25417,5,-161.87,-1000.61,128.54,-202.64,152.59,-57.37,-7.59,38.56,9.28
3,25430,0,0.0,,,,,,,,
4,25431,1,0.0,,,,,,,,
5,25433,0,0.0,,,,,,,,
6,25435,0,0.0,,,,,,,,
0,25438,5,84.72,-544.68,822.27,95.21,57.37,-18.31,33.83,19.38,-14.89
1,25450,4,6.23,-1063.35,156.25,80.57,-8.54,-10.99,0.81,44.25,0.92
2,25462,4,-223.02,-1039.79,107.06,-297.85,161.13,-14.65,-7.96,38.99,8.13
3,25478,0,0.0,,,,,,,,
4,25480,0,0.0,,,,,,,,
5,25481,0,0.0,,,,,,,,
6,25483,0,0.0,,,,,,,,
0,25486,5,87.28,-593.14,812.5,172.12,70.8,-17.09,33.73,19.86,-14.15
1,25498,5,38.45,-1041.5,169.43,-36.62,-7.93,-32.35,0.7,44.90,1.46
2,25510,5,-162.72,-1032.47,171.14,-397.34,122.07,23.8,-8.15,39.71,5.57
3,25523,0,0.0,,,,,,,,
4,25524,0,0.0,,,,,,,,
5,25526,0,0.0,,,,,,,,
6,25527,1,0.0,,,,,,,,
0,25531,3,68.73,-565.67,831.3,261.84,101.32,12.21,33.73,19.86,-14.15
1,25545,5,-11.11,-1153.56,177.0,-86.06,-14.65,-3.05,0.72,45.07,0.78
2,25558,5,-210.94,-1064.94,207.28,-511.47,354.0,152.59,-8.57,40.52,5.29
3,25570,0,0.0,,,,,,,,
4,25571,1,0.0,,,,,,,,
5,25573,0,0.0,,,,,,,,
6,25575,0,0.0,,,,,,,,
0,25578,5,191.89,-588.75,843.63,429.08,97.05,-15.26,34.16,20.85,-13.40
1,25590,4,22.22,-1409.42,225.34,-294.8,-49.44,99.49,1.03,45.00,-0.49
2,25603,4,-198.0,-1321.41,250.12,-617.68,259.4,220.95,-7.63,41.02,1.75
3,25618,0,0.0,,,,,,,,
4,25620,0,0.0,,,,,,,,
5,25622,0,0.0,,,,,,,,
6,25623,0,0.0,,,,,,,,
0,25627,4,112.3,-584.59,1023.32,1097.41,-131.84,-17.7,34.13,22.49,-13.65
1,25639,5,-90.58,-1783.81,177.0,-736.69,-60.42,103.76,1.94,45.13,-3.10
2,25652,4,-258.54,-1658.57,59.33,-870.97,428.47,333.25,-6.09,40.72,-1.68
3,25663,0,0.0,,,,,,,,
4,25665,0,0.0,,,,,,,,
5,25667,0,0.0,,,,,,,,
6,25668,0,0.0,,,,,,,,
0,25672,4,234.38,-641.85,1103.76,1869.51,209.96,-11.6,33.08,26.25,-12.60
1,25688,5,-140.63,-2166.14,-4.88,-1713.87,160.52,-136.72,2.45,43.84,-8.29
2,25701,4,-70.68,-1752.56,-134.64,-1225.59,763.55,326.54,-4.49,40.14,-7.03
3,25712,0,0.0,,,,,,,,
4,25714,0,0.0,,,,,,,,
5,25716,0,0.0,,,,,,,,
6,25717,0,0.0,,,,,,,,
0,25721,4,300.29,-780.4,1033.2,2784.42,536.5,-386.96,33.73,31.09,-8.85
1,25734,4,-349.12,-1939.33,-165.04,-2699.58,426.64,53.71,2.88,41.54,-17.88
2,25746,3,-303.59,-1320.8,-248.41,-1232.91,796.51,265.5,-4.49,40.14,-7.03
3,25760,0,0.0,,,,,,,,
4,25762,0,0.0,,,,,,,,
5,25763,1,0.0,,,,,,,,
6,25765,0,0.0,,,,,,,,
0,25769,5,368.16,-952.39,873.41,2968.14,380.25,-921.02,33.54,38.51,-1.29
1,25782,4,-313.48,-1348.39,-108.89,-3204.96,532.23,567.63,6.02,36.06,-29.09
2,25794,4,17.82,-813.23,241.21,-742.8,756.84,122.68,-2.54,39.44,-12.67
3,25805,0,0.0,,,,,,,,
4,25807,0,0.0,,,,,,,,
5,25809,0,0.0,,,,,,,,
6,25810,0,0.0,,,,,,,,
0,25815,4,-25.27,-1058.11,226.2,1712.65,484.01,-883.79,32.02,43.25,8.03
1,25830,4,-1233.52,1700.32,-87.89,-1531.98,1197.51,-411.99,6.02,36.06,-29.09
2,25841,5,-156.74,-204.59,266.72,-560.91,704.96,76.29,0.57,38.35,-16.70
3,25853,0,0.0,,,,,,,,
4,25856,0,0.0,,,,,,,,
5,25857,0,0.0,,,,,,,,
6,25859,0,0.0,,,,,,,,
0,25862,5,563.11,108.28,650.15,-1277.47,463.26,-639.04,29.66,45.75,15.43
1,25874,5,194.21,-990.97,-360.6,1135.86,848.39,355.83,8.57,29.38,-34.80
2,25886,5,46.63,-193.6,-280.15,505.37,-104.37,-159.91,1.32,36.83,-18.77
3,25903,0,0.0,,,,,,,,
4,25904,1,0.0,,,,,,,,
5,25906,0,0.0,,,,,,,,
6,25908,0,0.0,,,,,,,,
0,25911,5,621.34,-410.16,500.37,-951.54,488.89,248.41,26.23,47.40,11.78
1,25923,4,493.16,62.87,-358.89,1259.16,-220.95,-350.34,10.19,33.12,-32.60
2,25935,5,375.49,-211.3,82.76,1079.71,108.03,-393.07,0.78,37.61,-16.69
3,25948,0,0.0,,,,,,,,
4,25949,0,0.0,,,,,,,,
5,25951,0,0.0,,,,,,,,
6,25953,0,0.0,,,,,,,,
0,25956,4,-214.36,-635.01,649.05,-1937.26,-280.15,888.67,26.89,47.30,8.36
1,25972,4,-245.0,-797.49,-298.46,2535.4,-314.94,-621.34,9.06,35.85,-30.10
2,25985,4,-197.63,-505.37,-129.39,1815.8,-344.24,-736.08,-0.77,39.93,-13.50
3,25997,0,0.0,,,,,,,,
4,25998,1,0.0,,,,,,,,
5,26000,0,0.0,,,,,,,,
6,26002,0,0.0,,,,,,,,
0,26005,5,-327.76,-693.36,635.01,-2364.5,225.22,695.19,29.59,45.90,0.04
1,26017,5,-199.46,-1305.3,-50.05,2619.63,227.05,-631.71,7.1,41.55,-22.56
2,26030,5,16.48,-1003.66,-91.67,2208.25,-199.58,-597.53,-3.8,41.71,-6.19
3,26046,0,0.0,,,,,,,,
4,26047,0,0.0,,,,,,,,
5,26049,0,0.0,,,,,,,,
6,26050,1,0.0,,,,,,,,
0,26054,4,117.43,-1176.39,846.92,-2269.29,474.85,471.19,34.0,40.45,-10.60
1,26066,5,687.26,-1508.42,195.92,2399.29,207.52,-620.12,5.11,46.31,-16.10
2,26079,4,415.89,-1458.25,101.07,2368.77,-296.63,-527.95,-6.45,43.20,1.25
3,26091,0,0.0,,,,,,,,
4,26092,0,0.0,,,,,,,,
5,26094,0,0.0,,,,,,,,
6,26096,0,0.0,,,,,,,,
0,26099,4,302.61,-1532.23,826.78,-2033.08,6.71,1282.96,37.26,28.25,-16.70
1,26116,4,427.86,-1894.53,838.75,2227.78,-977.78,-521.24,2.45,52.65,-5.76
2,26128,4,114.14,-1876.22,407.1,2154.54,-1094.36,-451.05,-8.29,41.38,13.65
3,26140,0,0.0,,,,,,,,
4,26141,0,0.0,,,,,,,,
5,26143,0,0.0,,,,,,,,
6,26144,1,0.0,,,,,,,,
0,26148,4,198.73,-1846.31,370.36,-1592.41,-513.92,1480.1,38.4,17.19,-17.08
1,26161,4,-224.12,-1825.68,1451.78,1697.39,-1113.89,-345.46,-1.21,48.58,9.59
2,26173,5,-543.58,-1687.01,656.86,1527.71,-1712.65,-555.42,-7.28,35.52,23.18
3,26189,0,0.0,,,,,,,,
4,26190,1,0.0,,,,,,,,
5,26192,0,0.0,,,,,,,,
6,26194,0,0.0,,,,,,,,
0,26198,5,-193.97,-1607.79,7.32,-714.72,107.42,1254.27,36.6,9.17,-18.01
1,26210,5,323.12,-1201.17,1606.32,850.83,-855.1,-761.72,-0.26,42.43,14.40
2,26222,5,-219.85,-1411.25,957.89,425.42,-62.26,-143.43,-4.59,30.65,28.36
3,26234,0,0.0,,,,,,,,
4,26236,0,0.0,,,,,,,,
5,26237,0,0.0,,,,,,,,
6,26240,0,0.0,,,,,,,,
0,26243,5,-419.43,-1482.67,-347.17,62.26,-4.27,441.89,36.19,5.30,-18.23
1,26259,5,-239.14,-1205.93,1692.38,-175.17,-78.12,224.0,-0.26,41.13,16.20
2,26271,5,-382.81,-1296.39,635.74,-561.52,232.54,119.02,-5.64,31.42,28.39
3,26284,0,0.0,,,,,,,,
4,26285,1,0.0,,,,,,,,
5,26287,0,0.0,,,,,,,,
6,26289,0,0.0,,,,,,,,
0,26292,5,560.79,-511.11,1163.21,911.87,-49.44,-772.71,36.32,6.86,-17.68
1,26304,5,-89.6,-1951.66,-992.8,-715.94,492.55,380.86,-0.71,42.05,14.06
2,26316,5,-113.53,-1119.51,-751.46,-279.54,-317.99,-39.67,-5.7,33.13,26.44
3,26333,0,0.0,,,,,,,,
4,26334,1,0.0,,,,,,,,
5,26336,0,0.0,,,,,,,,
6,26338,0,0.0,,,,,,,,
0,26341,4,384.89,-769.78,632.45,1349.49,-189.82,-126.95,36.28,10.52,-17.69
1,26353,5,-218.87,-928.47,129.64,-1278.08,-163.57,242.92,1.29,45.30,7.36
2,26365,6,-84.35,-1011.72,-162.6,-682.98,-296.63,-67.14,-4.74,34.14,24.54
3,26378,0,0.0,,,,,,,,
4,26380,0,0.0,,,,,,,,
5,26381,0,0.0,,,,,,,,
6,26383,0,0.0,,,,,,,,
0,26386,5,103.15,-1556.64,872.92,352.17,-64.09,-354.0,36.02,14.72,-17.24
1,26402,4,193.12,-764.77,206.18,-195.92,172.12,-14.65,2.05,46.98,3.54
2,26415,4,23.93,-1151.49,-322.27,-744.63,-535.28,-281.37,-3.67,35.39,22.20
3,26427,0,0.0,,,,,,,,
4,26428,0,0.0,,,,,,,,
5,26430,0,0.0,,,,,,,,
6,26432,0,0.0,,,,,,,,
0,26435,4,88.13,-635.62,802.12,123.9,39.06,-51.27,36.17,15.14,-18.25
1,26447,4,-24.17,-888.43,163.21,-146.48,153.2,-50.05,1.27,47.01,3.34
2,26460,4,-426.51,-902.59,-114.75,-582.28,-62.26,-129.39,-3.76,36.63,21.09
3,26471,0,0.0,,,,,,,,
4,26477,0,0.0,,,,,,,,
5,26478,1,0.0,,,,,,,,
6,26480,0,0.0,,,,,,,,
0,26484,4,153.56,-622.19,815.55,55.54,-38.45,-59.2,36.6,15.92,-17.10
1,26496,5,23.93,-1006.96,165.89,69.58,-7.93,92.16,1.12,47.12,4.39
2,26508,5,68.73,-1012.57,-47.61,-565.8,175.17,-19.53,-4.32,38.22,18.66
3,26520,0,0.09775199999999999,,,,,,,,
4,26522,0,0.0,,,,,,,,
5,26523,0,0.0,,,,,,,,
6,26525,0,0.0,,,,,,,,
0,26528,5,91.43,-582.52,817.26,45.78,-4.88,-19.53,35.88,16.20,-17.80
1,26541,3,0.61,-1032.35,151.61,52.49,15.26,-24.41,1.12,47.12,4.39
2,26556,3,-149.05,-998.29,-5.49,-428.47,-17.09,-72.63,-4.32,38.22,18.66
3,26566,0,0.0,,,,,,,,
4,26568,0,0.0,,,,,,,,
5,26569,1,0.0,,,,,,,,
6,26571,0,0.0,,,,,,,,
0,26574,5,76.05,-577.51,813.96,-21.36,-12.21,-17.7,35.88,16.72,-18.29
1,26587,5,8.91,-1011.6,158.81,68.36,-9.16,-35.4,1.12,47.40,3.52
2,26599,4,-249.15,-1007.45,-0.49,-361.33,22.58,-61.04,-4.57,39.31,16.13
3,26611,0,0.0,,,,,,,,
4,26612,0,0.0,,,,,,,,
5,26614,0,0.0,,,,,,,,
6,26619,0,0.0,,,,,,,,
0,26624,4,110.23,-545.65,795.41,29.3,-15.26,-9.77,34.78,17.88,-17.58
1,26636,4,-33.69,-1005.49,155.64,26.86,-18.31,17.7,1.1,47.58,2.44
2,26647,5,-88.5,-995.48,32.71,-332.64,233.76,-37.84,-4.88,40.00,14.88
3,26659,0,0.0,,,,,,,,
4,26660,1,0.0,,,,,,,,
5,26662,0,0.0,,,,,,,,
6,26664,0,0.0,,,,,,,,
0,26668,5,79.96,-557.01,806.64,97.66,42.11,-12.21,34.3,18.20,-17.38
1,26680,4,13.67,-1013.43,167.48,4.88,6.1,-9.16,1.0,47.80,2.60
2,26692,4,-127.08,-991.09,76.05,-288.7,107.42,-62.26,-5.79,41.28,13.90
3,26707,0,0.0,,,,,,,,
4,26710,0,0.0,,,,,,,,
5,26711,0,0.0,,,,,,,,
6,26713,0,0.0,,,,,,,,
0,26716,5,111.21,-587.28,801.76,115.36,70.19,-13.43,34.14,19.30,-17.92
1,26728,5,2.56,-1012.94,181.52,24.41,7.32,-13.43,1.09,47.42,1.94
2,26740,4,-146.73,-995.73,77.76,-302.12,160.52,-36.62,-6.37,41.92,12.90
3,26752,1,0.0,,,,,,,,
4,26754,0,0.0,,,,,,,,
5,26756,0,0.0,,,,,,,,
6,26757,1,0.0,,,,,,,,
0,26761,3,175.17,-581.3,783.08,104.37,19.53,-54.93,34.14,19.30,-17.92
1,26775,5,-66.16,-1003.42,197.51,-34.79,114.14,79.96,1.56,47.53,0.99
2,26787,5,-196.17,-1019.9,116.82,-372.92,122.68,28.69,-6.19,42.22,11.13
3,26800,0,0.0,,,,,,,,
4,26802,0,0.0,,,,,,,,
5,26803,0,0.0,,,,,,,,
6,26805,0,0.0,,,,,,,,
0,26808,5,68.85,-603.39,783.08,120.85,-34.79,-106.2,33.37,19.51,-16.88
1,26820,5,33.08,-1000.85,205.32,-71.41,26.25,90.33,1.38,48.06,0.65
2,26832,4,-122.56,-985.35,182.98,-397.34,139.16,25.63,-6.88,42.50,9.03
3,26848,0,0.0,,,,,,,,
4,26850,0,0.0,,,,,,,,
5,26852,0,0.0,,,,,,,,
6,26853,0,0.0,,,,,,,,
0,26857,4,74.71,-611.94,775.39,156.86,3.66,-72.02,33.42,19.91,-18.14
1,26868,5,16.36,-1017.94,218.87,-40.28,3.66,75.68,1.44,47.53,0.81
2,26881,5,-110.47,-946.29,253.91,-389.4,146.48,25.63,-6.24,43.13,6.71
3,26893,0,0.0,,,,,,,,
4,26894,0,0.0,,,,,,,,
5,26896,0,0.0,,,,,,,,
6,26898,0,0.0,,,,,,,,
0,26901,4,59.45,-612.06,770.75,175.17,14.65,-45.17,32.8,20.94,-17.29
1,26917,4,62.26,-974.85,240.97,-80.57,7.32,39.06,2.11,47.64,0.06
2,26929,5,-105.59,-1023.32,247.68,-386.35,157.47,35.4,-5.9,43.46,5.32
3,26941,0,0.0,,,,,,,,
4,26943,0,0.0,,,,,,,,
5,26944,0,0.0,,,,,,,,
6,26946,0,0.0,,,,,,,,
0,26949,5,90.82,-626.71,797.0,283.2,42.72,-29.3,33.31,22.29,-17.66
1,26961,6,35.89,-1072.63,258.06,-167.24,3.66,39.06,2.94,47.83,-0.60
2,26974,4,-113.77,-1045.53,288.33,-407.1,116.58,61.65,-6.35,43.95,4.20
3,26986,0,0.0,,,,,,,,
4,26991,0,0.0,,,,,,,,
5,26993,0,0.0,,,,,,,,
6,26994,0,0.0,,,,,,,,
0,26998,4,97.05,-638.43,809.81,424.8,29.3,-28.08,33.01,23.44,-17.20
1,27011,4,13.31,-1169.68,274.29,-277.1,-71.41,-11.6,2.75,48.05,-1.67
2,27022,5,-211.18,-1118.53,290.28,-485.23,69.58,90.33,-5.75,44.32,0.88
3,27034,0,0.0,,,,,,,,
4,27036,0,0.0,,,,,,,,
5,27037,0,0.0,,,,,,,,
6,27039,0,0.0,,,,,,,,
0,27042,5,124.27,-674.68,798.58,650.63,14.65,-62.87,32.8,24.43,-16.35
1,27055,5,-2.56,-1222.53,299.32,-413.82,-65.92,26.25,3.05,48.19,-3.09
2,27071,4,-146.73,-1240.6,299.44,-611.57,195.92,144.04,-5.62,43.62,-1.25
3,27083,0,0.0,,,,,,,,
4,27084,0,0.0,,,,,,,,
5,27086,0,0.0,,,,,,,,
6,27088,0,0.0,,,,,,,,
0,27091,5,38.7,-657.47,921.26,1071.78,-26.25,-70.19,32.5,27.22,-14.53
1,27104,4,-77.15,-1809.57,265.38,-820.31,-53.71,-82.4,3.55,47.97,-7.85
2,27116,4,-221.56,-1705.44,114.75,-796.51,423.58,234.38,-3.78,43.30,-4.50
3,27128,0,0.0,,,,,,,,
4,27129,0,0.0,,,,,,,,
5,27131,0,0.0,,,,,,,,
6,27137,0,0.0,,,,,,,,
0,27141,4,211.55,-828.49,1132.2,2170.41,336.3,-17.09,32.08,31.42,-12.92
1,27153,4,-307.5,-2281.01,75.44,-1965.94,241.09,-203.25,3.54,46.59,-14.05
2,27165,3,-149.54,-1824.58,-199.34,-1142.58,830.69,253.3,-3.78,43.30,-4.50
3,27175,1,0.0,,,,,,,,
4,27177,0,0.0,,,,,,,,
5,27180,0,0.0,,,,,,,,
6,27181,0,0.0,,,,,,,,
0,27185,4,448.0,-958.74,1066.65,2826.54,756.84,-368.65,32.69,38.73,-6.92
1,27197,3,-69.21,-1841.55,-169.8,-2860.11,567.02,87.28,3.54,46.59,-14.05
2,27212,4,-145.02,-1058.72,-165.41,-1076.66,903.93,95.83,-1.25,42.19,-10.01
3,27224,0,0.0,,,,,,,,
4,27226,0,0.0,,,,,,,,
5,27228,0,0.0,,,,,,,,
6,27229,0,0.0,,,,,,,,
0,27233,4,270.63,-991.82,597.78,2437.13,224.61,-1007.08,31.82,44.13,1.31
1,27245,4,-68.97,-275.39,-289.43,-2942.5,524.29,498.66,4.8,41.64,-25.74
2,27257,4,109.13,-632.57,548.1,-493.77,413.21,130.62,1.01,40.97,-14.56
3,27269,0,0.0,,,,,,,,
4,27271,0,0.0,,,,,,,,
5,27273,0,0.0,,,,,,,,
6,27278,0,0.0,,,,,,,,
0,27281,5,-271.36,-3086.18,1692.99,1524.05,700.68,-559.69,29.99,47.30,10.44
1,27293,5,-217.77,768.68,-710.33,786.13,560.91,-744.63,9.12,33.96,-34.25
2,27305,6,-36.87,-36.01,-126.71,98.88,187.38,-197.14,2.43,39.53,-17.27
3,27318,0,0.0,,,,,,,,
4,27320,0,0.0,,,,,,,,
5,27321,0,0.0,,,,,,,,
6,27323,0,0.0,,,,,,,,
0,27326,5,131.96,25.88,519.41,-1378.17,159.3,-452.27,26.99,48.63,10.44
1,27338,5,246.09,-199.83,-385.62,1187.74,697.63,14.04,10.62,32.91,-35.12
2,27355,5,119.02,-212.04,10.62,861.82,191.04,-122.68,2.82,39.67,-17.55
3,27367,0,0.0,,,,,,,,
4,27368,0,0.0,,,,,,,,
5,27370,0,0.0,,,,,,,,
6,27372,0,0.0,,,,,,,,
0,27375,4,294.19,-722.05,554.32,-1726.07,141.6,250.24,25.67,47.75,5.07
1,27387,5,62.87,-480.59,-349.24,2426.15,86.06,-233.76,12.63,37.30,-31.38
2,27400,4,138.67,-354.74,-62.62,1308.59,131.23,-322.27,2.78,40.95,-14.98
3,27412,0,0.0,,,,,,,,
4,27413,0,0.0,,,,,,,,
5,27415,0,0.0,,,,,,,,
6,27416,1,0.0,,,,,,,,
0,27424,4,31.37,-468.26,445.19,-2204.59,200.2,689.7,27.82,43.32,-1.93
1,27437,4,-251.83,-1006.23,-41.02,2382.81,29.3,-602.42,10.77,42.85,-23.17
2,27449,4,-85.82,-654.3,-25.76,1909.18,-47.0,-566.41,0.9,42.83,-9.09
3,27460,0,0.0,,,,,,,,
4,27462,0,0.0,,,,,,,,
5,27464,0,0.0,,,,,,,,
6,27465,0,0.0,,,,,,,,
0,27469,4,83.98,-895.02,655.4,-2124.63,506.59,628.05,30.91,36.57,-8.04
1,27482,4,38.94,-1252.44,128.66,2310.18,153.2,-793.46,8.18,45.91,-14.58
2,27497,5,113.53,-1162.23,99.73,2238.16,-105.59,-768.43,-1.83,42.79,-1.17
3,27509,0,0.0,,,,,,,,
4,27511,0,0.0,,,,,,,,
5,27512,0,0.0,,,,,,,,
6,27514,0,0.0,,,,,,,,
0,27517,6,157.71,-1241.94,833.98,-2096.56,510.25,912.48,34.75,29.37,-11.74
1,27531,4,399.9,-1751.1,485.47,2248.54,-264.89,-868.53,3.98,46.85,-6.71
2,27543,4,-31.74,-1622.56,249.88,2296.14,-495.61,-640.87,-4.9,41.26,7.93
3,27554,0,0.0,,,,,,,,
4,27556,0,0.0,,,,,,,,
5,27558,0,0.0,,,,,,,,
6,27559,0,0.0,,,,,,,,
0,27567,5,222.9,-1646.12,710.69,-1696.17,-138.55,1259.16,37.11,20.85,-15.00
1,27580,4,219.12,-1897.95,1039.43,1897.58,-789.18,-424.8,1.03,45.50,1.42
2,27592,4,57.86,-1771.85,470.7,1906.13,-844.12,-531.62,-6.4,37.38,16.89
3,27603,0,0.0,,,,,,,,
4,27606,0,0.0,,,,,,,,
5,27608,0,0.0,,,,,,,,
6,27609,0,0.0,,,,,,,,
0,27613,4,100.59,-1621.34,390.5,-1157.23,-454.1,1091.92,36.35,13.55,-16.74
1,27625,4,-282.71,-1498.9,1254.88,1266.48,-762.94,-262.45,0.7,43.70,7.82
2,27641,4,-390.87,-1552.49,594.6,1190.19,-1028.44,-572.51,-5.53,33.04,23.11
3,27653,0,0.0,,,,,,,,
4,27655,0,0.0,,,,,,,,
5,27657,0,0.0,,,,,,,,
6,27658,0,0.0,,,,,,,,
0,27662,4,-228.39,-1348.75,88.13,-581.05,-11.6,997.92,36.95,7.97,-17.19
1,27674,4,663.09,-1144.17,1300.29,756.84,-760.5,-362.55,0.68,41.25,12.37
2,27686,5,-8.18,-1329.1,717.16,407.1,-346.68,-155.64,-4.85,30.42,26.35
3,27698,0,0.0,,,,,,,,
4,27700,0,0.0,,,,,,,,
5,27702,0,0.0,,,,,,,,
6,27703,0,0.0,,,,,,,,
0,27711,4,-432.62,-1159.42,-95.83,254.52,-97.05,206.3,35.23,6.60,-15.75
1,27723,4,-94.36,-1140.75,1168.33,-261.23,-54.32,112.3,1.22,40.93,12.76
2,27735,5,-213.01,-1188.23,291.99,-530.4,21.97,81.79,-4.69,30.66,25.99
3,27747,0,0.0,,,,,,,,
4,27749,0,0.0,,,,,,,,
5,27750,0,0.0,,,,,,,,
6,27752,0,0.0,,,,,,,,
0,27755,5,196.9,-708.98,851.68,1024.17,14.04,-612.79,35.4,8.96,-17.50
1,27767,5,239.87,-1250.49,-417.11,-551.76,165.41,73.85,1.39,42.52,10.46
2,27780,5,119.26,-915.53,-1075.93,-421.14,-213.01,155.03,-4.46,32.64,24.67
3,27804,0,0.0,,,,,,,,
4,27805,0,0.0,,,,,,,,
5,27807,0,0.0,,,,,,,,
6,27809,0,0.0,,,,,,,,
0,27812,4,559.08,-503.17,616.21,1325.07,-256.35,-93.38,36.34,13.35,-16.06
1,27825,4,-108.15,-818.85,167.48,-1234.13,-194.09,388.18,1.83,44.58,6.23
2,27837,4,16.6,-1079.22,-110.96,-735.47,-311.89,14.65,-3.76,34.59,22.91
3,27849,0,0.0,,,,,,,,
4,27850,0,0.0,,,,,,,,
5,27852,0,0.0,,,,,,,,
6,27854,0,0.0,,,,,,,,
0,27857,5,24.05,-1148.19,716.8,88.5,-155.64,-469.97,35.63,15.65,-17.53
1,27874,4,259.28,-512.08,307.13,-563.96,-209.35,-10.99,2.62,45.96,2.16
2,27886,4,246.95,-911.13,-188.84,-989.99,-132.45,-86.67,-2.1,35.67,20.64
3,27897,0,0.0,,,,,,,,
4,27899,0,0.0,,,,,,,,
5,27901,0,0.0,,,,,,,,
6,27902,0,0.0,,,,,,,,
0,27907,4,77.27,-635.62,799.8,-20.75,-60.42,-81.18,35.5,15.99,-17.32
1,27919,4,33.94,-885.62,137.08,-119.02,62.26,25.02,3.06,45.86,1.59
2,27930,5,-492.07,-882.81,-121.09,-596.31,-509.64,-66.53,-2.06,37.16,19.51
3,27947,0,0.0,,,,,,,,
4,27949,0,0.0,,,,,,,,
5,27950,0,0.0,,,,,,,,
6,27952,0,0.0,,,,,,,,
0,27955,5,42.24,-568.24,818.73,5.49,-157.47,-31.74,33.97,16.64,-17.19
1,27967,5,95.58,-988.53,164.43,-28.69,-34.18,76.9,3.15,46.36,1.42
2,27979,4,32.23,-986.21,-40.77,-422.97,25.63,-134.89,-1.79,38.50,17.21
3,27991,1,0.0,,,,,,,,
4,27993,0,0.0,,,,,,,,
5,27995,0,0.0,,,,,,,,
6,27996,1,0.0,,,,,,,,
0,28000,4,8.79,-562.5,841.55,54.93,-60.42,32.96,32.48,17.43,-18.24
1,28015,5,68.36,-1032.84,151.12,-12.21,-21.36,-51.88,3.44,46.80,1.86
2,28027,6,-99.73,-1004.88,-55.79,-375.98,46.39,-169.07,-3.16,38.85,15.76
3,28040,0,0.0,,,,,,,,
4,28041,1,0.0,,,,,,,,
5,28043,0,0.0,,,,,,,,
6,28045,0,0.0,,,,,,,,
0,28048,5,128.66,-564.09,815.06,106.81,84.84,37.84,32.43,18.01,-18.30
1,28060,3,-57.74,-952.15,192.26,-73.85,76.29,-43.95,3.44,46.80,1.86
2,28071,4,-234.86,-939.09,42.72,-346.68,173.34,-84.84,-3.16,38.85,15.76
3,28086,0,0.0,,,,,,,,
4,28088,0,0.0,,,,,,,,
5,28089,1,0.0,,,,,,,,
6,28091,0,0.0,,,,,,,,
0,28094,5,110.47,-599.85,798.95,90.94,-29.91,-16.48,32.51,19.25,-17.43
1,28106,5,21.85,-1031.01,182.74,72.02,-37.84,32.96,2.51,46.37,1.18
2,28119,5,-177.61,-995.97,44.31,-282.59,21.36,-2.44,-3.08,38.84,14.07
3,28131,0,0.0,,,,,,,,
4,28132,0,0.0,,,,,,,,
5,28134,0,0.0,,,,,,,,
6,28136,0,0.0,,,,,,,,
0,28139,3,100.95,-613.28,786.5,187.99,-205.08,51.88,32.51,19.25,-17.43
1,28150,4,-9.52,-946.53,191.89,137.94,18.31,100.71,2.99,46.37,0.49
2,28166,5,-172.36,-1004.27,61.16,-260.62,-69.58,4.27,-3.6,39.27,13.46
3,28178,0,0.0,,,,,,,,
4,28180,0,0.0,,,,,,,,
5,28181,0,0.0,,,,,,,,
6,28183,0,0.0,,,,,,,,
0,28186,5,71.41,-590.7,786.5,117.19,-140.99,-14.65,30.75,20.28,-18.43
1,28198,6,12.82,-994.38,187.38,31.74,38.45,112.3,4.02,46.30,0.89
2,28211,4,-151.73,-999.27,95.34,-275.27,19.53,11.6,-2.73,39.45,11.88
3,28222,1,0.0,,,,,,,,
4,28224,0,0.0,,,,,,,,
5,28230,0,0.0,,,,,,,,
6,28231,0,0.0,,,,,,,,
0,28235,4,36.99,-598.75,776.86,100.1,-114.14,-36.62,29.74,20.76,-17.61
1,28248,4,44.8,-964.6,200.68,-5.49,33.57,127.56,3.56,46.70,1.17
2,28259,5,-111.08,-957.4,145.75,-282.59,21.97,21.36,-2.77,39.76,10.39
3,28271,0,0.0,,,,,,,,
4,28273,0,0.0,,,,,,,,
5,28274,0,0.0,,,,,,,,
6,28276,0,0.0,,,,,,,,
0,28279,5,6.84,-622.07,784.79,70.8,-98.27,-32.96,29.55,21.00,-18.03
1,28292,4,47.36,-989.87,201.29,56.15,-140.99,83.62,3.88,46.90,-0.81
2,28308,4,-161.25,-991.82,163.45,-287.48,25.02,2.44,-2.43,40.28,9.22
3,28319,0,0.0,,,,,,,,
4,28321,0,0.0,,,,,,,,
5,28322,1,0.0,,,,,,,,
6,28324,0,0.09775199999999999,,,,,,,,
0,28328,5,-0.49,-608.64,773.44,79.35,-46.39,-31.74,28.34,21.77,-18.18
1,28340,5,52.49,-969.6,212.77,-5.49,27.47,99.49,4.43,47.60,-0.07
2,28352,5,-108.89,-1022.95,182.74,-288.7,91.55,1.22,-2.11,40.34,9.56
3,28364,0,0.0,,,,,,,,
4,28365,0,0.0,,,,,,,,
5,28367,0,0.0,,,,,,,,
6,28369,0,0.09775199999999999,,,,,,,,
0,28389,4,0.73,-614.5,799.32,140.99,40.89,-48.22,28.33,22.25,-18.21
1,28401,4,56.27,-1072.02,217.77,-26.25,-32.96,69.58,5.44,46.88,0.00
2,28412,6,-157.35,-1038.94,211.3,-338.13,93.99,-10.99,-2.33,40.81,6.95
3,28425,0,0.0,,,,,,,,
4,28427,0,0.0,,,,,,,,
5,28428,0,0.0,,,,,,,,
6,28430,0,0.29383000000000004,,,,,,,,
0,28433,4,81.54,-621.7,795.53,227.66,20.75,-40.89,28.33,22.25,-18.21
1,28444,5,7.08,-1083.74,246.58,-69.58,66.53,151.37,4.96,46.70,-0.39
2,28456,5,-243.77,-1018.68,234.86,-391.85,101.93,29.91,-2.48,41.32,6.51
3,28471,0,0.0,,,,,,,,
4,28473,0,0.0,,,,,,,,
5,28475,0,0.0,,,,,,,,
6,28476,1,0.39215700000000003,,,,,,,,
0,28480,4,28.2,-647.34,785.89,346.07,-110.47,-95.83,28.45,22.91,-17.11
1,28492,4,99.85,-1161.01,258.18,-50.05,10.99,285.03,6.21,47.36,-1.73
2,28505,4,-195.31,-1075.44,293.82,-479.13,233.76,78.74,-2.6,41.10,3.72
3,28516,0,0.0,,,,,,,,
4,28518,0,0.0,,,,,,,,
5,28519,1,0.0,,,,,,,,
6,28521,0,0.49067700000000003,,,,,,,,
0,28525,4,-10.5,-674.44,799.19,519.41,-34.18,-112.92,28.39,23.97,-18.07
1,28541,6,124.88,-1220.58,258.3,-242.92,3.66,140.38,7.35,47.33,-3.00
2,28554,5,-85.82,-1177.98,295.78,-532.23,329.59,98.27,-2.61,42.25,1.04
3,28566,0,0.0,,,,,,,,
4,28567,1,0.0,,,,,,,,
5,28569,0,0.0,,,,,,,,
6,28571,0,0.49067700000000003,,,,,,,,
0,28574,5,6.23,-696.29,896.73,920.41,-12.21,-109.86,28.06,24.90,-16.53
1,28587,5,31.13,-1591.43,239.75,-590.21,36.01,78.74,8.26,47.35,-5.35
2,28599,4,-184.2,-1562.26,120.97,-675.05,372.92,133.06,-2.51,42.27,-2.37
3,28615,0,0.0,,,,,,,,
4,28616,0,0.0,,,,,,,,
5,28618,0,0.0,,,,,,,,
6,28619,1,0.09775199999999999,,,,,,,,
0,28623,4,-78.49,-712.65,1029.66,1561.28,355.83,-198.97,28.77,27.80,-15.36
1,28636,4,-111.94,-2005.86,45.04,-1522.22,226.44,-79.96,9.06,46.83,-8.92
2,28648,4,-196.04,-1676.03,-118.65,-1058.96,845.95,146.48,-2.25,42.15,-6.29
3,28660,0,0.0,,,,,,,,
4,28661,1,0.0,,,,,,,,
5,28663,0,0.0,,,,,,,,
6,28665,0,0.0,,,,,,,,
0,28668,6,75.44,-877.2,1033.81,2458.5,643.31,-372.92,28.7,34.07,-11.83
1,28685,4,-22.58,-1957.64,30.4,-2623.29,444.34,117.8,9.3,44.89,-17.24
2,28697,4,-206.79,-1411.5,-64.7,-1185.3,1101.07,141.6,-0.12,41.39,-12.06
3,28709,0,0.0,,,,,,,,
4,28710,0,0.0,,,,,,,,
5,28712,0,0.0,,,,,,,,
6,28715,0,0.0,,,,,,,,
0,28718,4,361.45,-1285.64,909.42,2768.55,341.8,-684.81,29.39,41.27,-3.48
1,28730,4,-53.96,-935.79,-77.15,-2825.32,354.61,681.76,11.89,39.98,-27.67
2,28742,5,106.93,-575.44,170.04,-664.67,597.53,43.33,2.36,39.90,-16.47
3,28759,0,0.0,,,,,,,,
4,28760,0,0.0,,,,,,,,
5,28762,0,0.0,,,,,,,,
6,28763,1,0.0,,,,,,,,
0,28767,4,-302.12,-515.63,174.07,1931.76,663.45,-711.06,28.05,45.30,4.36
1,28779,4,-459.35,1237.55,-397.34,-2089.84,669.56,-570.68,14.18,32.91,-35.69
2,28791,4,-63.72,-325.93,625.24,-418.09,893.55,148.32,3.43,39.31,-18.29
3,28804,0,0.0,,,,,,,,
4,28805,0,0.0,,,,,,,,
5,28807,0,0.0,,,,,,,,
6,28809,0,0.0,,,,,,,,
0,28812,4,649.29,-484.38,873.66,-875.85,73.24,-269.78,25.79,48.46,11.91
1,28828,4,30.03,-986.57,-525.02,1693.12,298.46,41.5,14.75,35.40,-32.92
2,28840,5,220.83,-135.74,-161.13,672.61,-76.29,-191.04,3.14,39.73,-17.38
3,28852,0,0.0,,,,,,,,
4,28854,0,0.0,,,,,,,,
5,28856,0,0.0,,,,,,,,
6,28857,0,0.0,,,,,,,,
0,28861,4,202.15,-458.62,506.1,-1304.32,158.69,357.06,24.73,48.32,8.50
1,28873,3,39.79,-141.24,-267.46,1630.25,49.44,-300.29,14.75,35.40,-32.92
2,28884,4,37.6,-346.68,2.32,1146.85,-46.39,-364.38,3.14,39.73,-17.38
3,28895,0,0.0,,,,,,,,
4,28900,1,0.0,,,,,,,,
5,28902,0,0.0,,,,,,,,
6,28904,0,0.0,,,,,,,,
0,28907,5,-76.54,-539.55,559.45,-2067.87,212.4,641.48,26.61,45.98,1.70
1,28919,5,-142.82,-916.14,-199.34,2409.67,25.63,-643.92,13.51,40.23,-28.66
2,28932,5,-56.76,-598.88,-85.69,1716.31,-59.81,-538.33,1.54,41.66,-13.50
3,28944,0,0.0,,,,,,,,
4,28945,1,0.0,,,,,,,,
5,28947,0,0.0,,,,,,,,
6,28949,0,0.0,,,,,,,,
0,28952,5,-48.71,-707.76,605.35,-2151.49,504.15,557.25,29.68,40.72,-4.59
1,28964,5,111.69,-1153.69,16.6,2311.4,214.23,-753.78,10.83,44.19,-20.81
2,28981,4,58.72,-958.74,50.29,2069.7,-22.58,-626.83,-0.83,42.53,-6.58
3,28992,1,0.0,,,,,,,,
4,28994,0,0.0,,,,,,,,
5,28996,0,0.0,,,,,,,,
6,28997,0,0.0,,,,,,,,
0,29001,4,-64.94,-1042.97,832.76,-2108.15,507.81,654.3,32.8,34.07,-9.67
1,29014,4,439.33,-1578.74,277.95,2221.68,47.61,-817.87,7.24,46.40,-12.01
2,29026,4,163.09,-1490.48,120.24,2244.87,-275.88,-609.13,-3.78,42.50,0.56
3,29037,1,0.0,,,,,,,,
4,29043,0,0.0,,,,,,,,
5,29045,0,0.0,,,,,,,,
6,29046,0,0.0,,,,,,,,
0,29050,4,183.84,-1495.0,911.87,-1862.79,234.38,942.38,36.29,25.94,-13.16
1,29063,4,399.78,-1750.24,703.37,2030.03,-415.65,-556.64,3.38,46.42,-4.72
2,29075,4,105.47,-1757.93,320.68,2015.38,-722.05,-495.61,-5.73,39.93,10.33
3,29086,1,0.0,,,,,,,,
4,29088,0,0.0,,,,,,,,
5,29090,0,0.0,,,,,,,,
6,29091,0,0.0,,,,,,,,
0,29095,5,166.63,-1522.22,507.57,-1502.69,-213.01,1084.59,37.16,17.40,-16.49
1,29108,4,114.99,-1707.89,1067.02,1648.56,-731.81,-431.52,1.2,45.26,3.86
2,29124,4,-288.57,-1587.77,443.12,1530.15,-1296.39,-526.12,-7.07,36.56,18.68
3,29136,0,0.0,,,,,,,,
4,29137,0,0.0,,,,,,,,
5,29139,0,0.0,,,,,,,,
6,29140,2,0.0,,,,,,,,
0,29145,4,-13.06,-1307.5,364.75,-922.24,-90.94,1191.41,37.61,10.95,-16.42
1,29157,4,167.6,-1360.47,938.6,997.31,-901.49,-624.39,0.78,42.92,9.19
2,29169,4,-249.51,-1374.15,460.57,836.18,-574.34,-355.22,-6.02,32.62,24.35
3,29181,0,0.0,,,,,,,,
4,29187,0,0.0,,,,,,,,
5,29189,0,0.0,,,,,,,,
6,29190,0,0.0,,,,,,,,
0,29194,4,-468.38,-1274.9,173.95,-448.61,-256.96,880.13,37.3,7.35,-17.22
1,29206,4,-130.74,-1071.41,1173.71,618.9,-582.89,-217.29,1.01,41.86,13.24
2,29218,4,-288.82,-1200.56,464.36,181.88,-345.46,-87.89,-5.68,30.10,26.33
3,29231,0,0.0,,,,,,,,
4,29232,0,0.0,,,,,,,,
5,29234,0,0.0,,,,,,,,
6,29236,0,0.0,,,,,,,,
0,29239,4,-177.0,-915.89,47.85,181.27,139.77,-144.04,36.9,4.58,-15.71
1,29251,4,243.16,-2283.45,1093.63,-401.0,156.86,93.38,0.21,40.36,14.10
2,29267,5,-37.11,-1200.44,326.9,-568.85,159.91,124.51,-5.38,30.52,27.08
3,29279,0,0.0,,,,,,,,
4,29281,0,0.0,,,,,,,,
5,29283,0,0.0,,,,,,,,
6,29284,0,0.0,,,,,,,,
0,29288,4,233.89,-546.39,1406.49,935.06,189.21,-385.74,37.61,7.90,-16.43
1,29300,4,-160.16,-1587.16,-625.98,-961.3,181.27,-59.2,-0.28,41.32,11.73
2,29313,4,-256.96,-1134.4,-939.09,-238.65,-234.99,-19.53,-5.15,32.23,25.05
3,29324,0,0.0,,,,,,,,
4,29326,0,0.0,,,,,,,,
5,29332,0,0.0,,,,,,,,
6,29333,0,0.0,,,,,,,,
0,29337,4,367.19,-1031.86,917.97,1032.71,7.93,-187.38,38.49,11.25,-16.65
1,29349,4,-91.43,-876.83,153.08,-996.7,-103.76,238.04,0.44,43.14,7.15
2,29361,5,-72.75,-1103.15,-246.58,-668.33,32.35,8.54,-4.57,33.44,22.91
3,29373,0,0.0,,,,,,,,
4,29375,0,0.0,,,,,,,,
5,29376,0,0.0,,,,,,,,
6,29378,0,0.0,,,,,,,,
0,29381,5,47.12,-894.41,934.94,633.54,59.2,-294.8,38.5,14.45,-15.60
1,29393,6,4.76,-893.19,215.33,-598.14,125.73,-47.0,0.35,45.35,4.24
2,29410,4,-122.92,-979.0,14.53,-729.37,89.11,-122.07,-5.07,34.75,20.87
3,29422,0,0.0,,,,,,,,
4,29423,0,0.0,,,,,,,,
5,29425,0,0.0,,,,,,,,
6,29426,1,0.0,,,,,,,,
0,29430,4,116.58,-691.16,814.21,184.94,-102.54,-123.9,39.42,15.20,-15.67
1,29443,4,-37.72,-908.45,185.79,-63.48,-106.81,41.5,0.44,45.76,3.09
2,29455,4,-87.28,-967.77,3.78,-524.29,-239.87,-93.38,-4.81,36.32,19.30
3,29466,0,0.0,,,,,,,,
4,29468,0,0.0,,,,,,,,
5,29470,0,0.0,,,,,,,,
6,29475,0,0.0,,,,,,,,
0,29478,6,122.56,-622.44,824.71,48.83,-31.13,-24.41,39.73,14.58,-16.41
1,29491,5,-0.49,-961.3,161.74,32.35,-25.02,22.58,0.52,45.26,1.72
2,29503,4,-148.8,-989.26,-90.82,-376.59,-76.29,-47.61,-4.93,36.57,18.37
3,29515,0,0.0,,,,,,,,
4,29516,0,0.0,,,,,,,,
5,29518,0,0.0,,,,,,,,
6,29520,0,0.0,,,,,,,,
0,29523,5,177.0,-594.6,796.02,19.53,-86.67,-27.47,39.39,14.25,-15.47
1,29536,4,-51.39,-1015.38,145.87,56.15,44.56,57.98,0.67,45.56,1.98
2,29551,5,-105.71,-1017.7,-80.57,-281.37,-87.89,-79.96,-5.47,37.21,17.86
3,29563,0,0.0,,,,,,,,
4,29565,0,0.0,,,,,,,,
5,29566,2,0.0,,,,,,,,
6,29569,0,0.0,,,,,,,,
0,29572,5,174.8,-600.46,790.77,-51.27,-234.38,-48.83,37.38,15.70,-16.87
1,29584,4,-21.85,-1020.51,150.02,78.74,62.26,150.15,0.67,45.56,1.98
2,29595,5,-188.48,-1011.47,-82.28,-319.21,-246.58,-13.43,-4.65,37.49,15.72
3,29607,0,0.09775199999999999,,,,,,,,
4,29609,0,0.0,,,,,,,,
5,29611,0,0.0,,,,,,,,
6,29613,0,0.0,,,,,,,,
0,29616,4,144.29,-586.55,804.44,-92.16,-298.46,-68.97,37.38,15.70,-16.87
1,29631,4,-6.23,-995.61,159.55,62.87,65.31,172.12,0.76,46.09,2.40
2,29643,3,-231.81,-1004.15,-38.94,-332.64,-347.9,17.09,-4.65,37.49,15.72
3,29654,1,0.09775199999999999,,,,,,,,
4,29656,0,0.0,,,,,,,,
5,29658,0,0.0,,,,,,,,
6,29660,0,0.0,,,,,,,,
0,29663,4,31.37,-496.95,828.74,-30.52,-262.45,-68.97,34.07,16.86,-17.25
1,29675,4,17.46,-1011.72,144.41,89.72,43.33,148.32,1.67,45.83,1.22
2,29687,4,-99.37,-992.07,-9.89,-381.47,-69.58,31.13,-3.54,38.05,14.99
3,29703,0,0.0,,,,,,,,
4,29705,0,0.0,,,,,,,,
5,29706,0,0.0,,,,,,,,
6,29708,0,0.0,,,,,,,,
0,29711,5,-19.41,-546.14,819.58,46.39,-118.41,-39.06,32.62,17.33,-16.91
1,29723,5,46.75,-945.19,162.11,43.95,16.48,68.97,2.36,46.28,2.50
2,29735,5,-123.05,-975.46,83.01,-306.4,23.8,-30.52,-3.33,38.28,13.43
3,29747,1,0.0,,,,,,,,
4,29749,0,0.0,,,,,,,,
5,29751,0,0.0,,,,,,,,
6,29752,0,0.0,,,,,,,,
0,29756,4,3.3,-557.62,811.65,46.39,-33.57,-9.77,31.6,17.97,-17.18
1,29771,5,36.13,-1004.27,157.84,13.43,49.44,20.75,2.89,46.35,1.54
2,29784,4,-166.75,-990.11,84.23,-267.33,78.74,-50.05,-3.26,39.22,11.34
3,29796,0,0.0,,,,,,,,
4,29797,0,0.0,,,,,,,,
5,29799,0,0.0,,,,,,,,
6,29801,0,0.0,,,,,,,,
0,29804,4,-15.75,-541.38,817.63,61.65,56.15,-12.82,31.99,17.85,-17.52
1,29816,4,65.43,-1023.32,157.59,-15.26,45.17,-20.75,2.6,46.09,1.53
2,29829,4,-142.33,-979.98,118.53,-251.46,136.11,-53.71,-4.39,39.58,10.07
3,29844,0,0.0,,,,,,,,
4,29846,0,0.0,,,,,,,,
5,29847,0,0.0,,,,,,,,
6,29849,0,0.0,,,,,,,,
0,29852,5,25.39,-576.54,812.5,84.23,9.16,-6.1,30.71,18.79,-16.97
1,29864,6,48.22,-967.41,179.44,22.58,-17.09,10.99,2.75,46.48,0.68
2,29877,4,-169.31,-988.89,124.63,-219.12,115.36,-34.18,-5.3,39.83,10.02
3,29888,1,0.0,,,,,,,,
4,29890,0,0.0,,,,,,,,
5,29892,0,0.0,,,,,,,,
6,29893,1,0.0,,,,,,,,
0,29897,4,26.86,-544.19,816.89,64.09,18.92,-28.69,30.68,19.51,-17.27
1,29910,4,42.36,-998.66,178.96,2.44,8.54,10.99,3.23,46.42,0.76
2,29925,4,-116.58,-995.97,157.1,-243.53,108.03,-42.11,-5.11,40.48,9.67
3,29937,0,0.0,,,,,,,,
4,29938,0,0.0,,,,,,,,
5,29940,0,0.0,,,,,,,,
6,29942,0,0.0,,,,,,,,
0,29945,4,2.93,-574.58,801.88,68.97,73.24,-50.05,29.88,20.42,-17.53
1,29958,4,43.09,-980.71,184.2,7.93,0.0,-18.31,2.86,46.75,-0.02
2,29969,5,-182.37,-996.95,169.92,-241.7,65.92,-40.89,-5.9,40.88,7.75
3,29981,0,0.0,,,,,,,,
4,29983,0,0.0,,,,,,,,
5,29984,0,0.0,,,,,,,,
6,29990,0,0.0,,,,,,,,
0,29993,5,25.39,-567.02,815.19,133.67,37.84,-31.74,30.6,20.37,-16.52
1,30006,4,41.75,-1058.96,184.81,10.38,-9.16,4.88,2.86,46.24,0.73
2,30018,4,-181.64,-1016.85,170.17,-285.03,78.12,-9.77,-6.04,41.15,7.91
3,30029,0,0.0,,,,,,,,
4,30031,0,0.0,,,,,,,,
5,30032,1,0.0,,,,,,,,
6,30034,0,0.0,,,,,,,,
0,30039,4,52.25,-571.41,812.99,193.48,16.48,-56.15,30.16,21.42,-17.02
1,30050,5,6.71,-1043.95,198.36,-34.79,50.05,92.16,3.76,46.29,-1.51
2,30066,4,-175.05,-1084.11,198.85,-356.45,116.58,56.15,-5.98,42.02,5.93
3,30078,0,0.0,,,,,,,,
4,30080,0,0.0,,,,,,,,
5,30082,0,0.0,,,,,,,,
6,30083,1,0.195695,,,,,,,,
0,30087,4,57.74,-586.79,831.79,346.07,-30.52,-34.79,29.9,22.08,-16.59
1,30099,4,0.85,-1137.45,209.59,-114.75,84.84,245.97,3.64,47.11,-1.03
2,30111,4,-240.84,-1127.69,227.78,-450.44,228.27,119.02,-5.52,41.22,4.08
3,30123,0,0.0,,,,,,,,
4,30125,0,0.0,,,,,,,,
5,30127,0,0.0,,,,,,,,
6,30128,1,0.195695,,,,,,,,
0,30132,4,75.07,-614.87,910.77,569.46,-98.27,-37.23,29.97,24.07,-16.69
1,30147,5,166.14,-1528.56,217.77,-248.41,-28.69,307.01,5.19,47.29,-2.66
2,30159,5,-166.99,-1376.95,208.86,-598.75,278.93,205.08,-4.77,42.11,1.50
3,30172,0,0.0,,,,,,,,
4,30174,0,0.0,,,,,,,,
5,30175,0,0.0,,,,,,,,
6,30177,0,0.29383000000000004,,,,,,,,
0,30180,5,-29.3,-641.72,971.8,1204.83,-101.93,-55.54,29.94,25.84,-15.45
1,30193,3,70.56,-1681.52,168.46,-825.2,-42.11,126.95,5.19,47.29,-2.66
2,30203,6,-113.28,-1547.73,69.95,-848.39,613.4,227.05,-4.57,42.60,-1.93
3,30220,0,0.0,,,,,,,,
4,30221,1,0.0,,,,,,,,
5,30223,0,0.0,,,,,,,,
6,30225,0,0.0,,,,,,,,
0,30228,4,4.39,-732.06,1013.92,1871.34,356.45,-164.18,30.54,29.32,-13.70
1,30240,4,-32.1,-1840.82,66.77,-1586.91,36.62,-303.96,5.92,47.12,-4.71
2,30253,3,-24.54,-1686.65,30.88,-1109.01,731.2,282.59,-4.57,42.60,-1.93
3,30264,0,0.0,,,,,,,,
4,30265,0,0.0,,,,,,,,
5,30267,0,0.0,,,,,,,,
6,30269,0,0.0,,,,,,,,
0,30272,4,177.25,-824.71,977.78,2427.98,579.83,-186.77,31.93,36.49,-7.43
1,30288,4,-174.68,-1804.69,10.38,-2440.19,206.3,28.08,5.6,45.91,-12.23
2,30301,4,-162.35,-1261.11,-99.61,-1180.42,702.51,259.4,-2.66,42.33,-7.62
3,30313,0,0.0,,,,,,,,
4,30314,0,0.0,,,,,,,,
5,30316,0,0.0,,,,,,,,
6,30317,1,0.0,,,,,,,,
0,30321,4,361.69,-1285.52,815.43,2576.29,267.94,-690.31,31.58,42.35,1.34
1,30333,5,-278.69,-1131.47,73.12,-2638.55,378.42,686.65,6.53,43.53,-22.51
2,30346,4,-59.81,-643.19,261.35,-772.71,544.43,114.14,0.07,41.48,-13.33
3,30361,0,0.0,,,,,,,,
4,30363,0,0.0,,,,,,,,
5,30365,0,0.0,,,,,,,,
6,30366,0,0.0,,,,,,,,
0,30370,4,-206.05,-948.36,486.08,1593.63,299.07,-701.29,29.93,45.02,7.86
1,30383,4,-872.56,1498.54,-681.52,-1830.44,1397.71,-586.55,9.41,37.49,-31.74
2,30395,4,-234.38,-114.87,199.46,-427.86,768.43,55.54,1.81,39.15,-17.72
3,30406,0,0.0,,,,,,,,
4,30408,0,0.0,,,,,,,,
5,30410,0,0.0,,,,,,,,
6,30411,0,0.0,,,,,,,,
0,30415,4,281.49,44.56,662.48,-1100.46,305.79,-715.94,26.73,47.01,8.96
1,30431,5,261.11,-927.73,-470.46,1270.14,761.72,204.47,12.17,34.48,-34.17
2,30444,4,202.64,-257.45,-52.37,684.2,426.64,-50.66,2.99,39.10,-18.16
3,30455,0,0.0,,,,,,,,
4,30457,0,0.0,,,,,,,,
5,30458,0,0.0,,,,,,,,
6,30460,0,0.0,,,,,,,,
0,30464,5,334.23,-492.31,526.86,-1138.92,255.13,169.07,25.18,46.83,5.79
1,30476,5,78.37,-234.86,-327.27,1637.57,79.35,-336.3,13.84,37.84,-30.91
2,30488,5,100.34,-303.22,45.17,1099.85,321.04,-305.18,3.02,40.11,-16.49
3,30504,0,0.0,,,,,,,,
4,30505,2,0.0,,,,,,,,
5,30508,0,0.0,,,,,,,,
6,30510,0,0.0,,,,,,,,
0,30513,5,21.0,-539.18,546.14,-1952.51,378.42,749.51,27.58,43.42,-0.79
1,30525,4,-212.16,-806.15,-120.97,2238.16,-23.8,-809.33,12.41,41.25,-25.46
2,30537,5,-9.28,-620.97,-48.22,1721.19,-147.71,-745.24,1.6,40.98,-12.05
3,30550,0,0.0,,,,,,,,
4,30551,1,0.0,,,,,,,,
5,30553,0,0.0,,,,,,,,
6,30555,0,0.0,,,,,,,,
0,30558,5,-72.14,-741.46,667.72,-2001.95,617.07,759.28,32.21,38.93,-5.73
1,30574,4,67.26,-1193.73,31.25,2153.32,18.92,-1053.47,8.62,43.87,-18.05
2,30586,4,39.06,-1021.0,0.85,2077.03,-113.53,-800.17,-1.99,42.30,-5.77
3,30599,0,0.0,,,,,,,,
4,30600,0,0.0,,,,,,,,
5,30602,0,0.0,,,,,,,,
6,30604,0,0.0,,,,,,,,
0,30607,4,-3.05,-1055.79,936.04,-1948.24,571.9,960.08,37.54,33.48,-10.40
1,30619,4,474.98,-1612.3,219.36,2178.34,-217.9,-943.6,3.76,45.20,-11.43
2,30631,5,137.82,-1523.93,98.27,2266.85,-363.77,-668.33,-5.49,41.32,1.38
3,30648,0,0.0,,,,,,,,
4,30649,0,0.0,,,,,,,,
5,30651,0,0.0,,,,,,,,
6,30652,1,0.0,,,,,,,,
0,30656,4,157.84,-1542.36,931.76,-1857.91,158.69,1177.98,41.31,22.42,-14.17
1,30668,4,330.08,-1875.24,833.62,2058.11,-674.44,-529.17,-0.45,44.63,-4.11
2,30681,4,135.38,-1805.54,390.87,1982.42,-680.54,-512.7,-8.0,40.04,11.47
3,30693,0,0.0,,,,,,,,
4,30694,1,0.0,,,,,,,,
5,30696,0,0.0,,,,,,,,
6,30698,0,0.0,,,,,,,,
0,30701,3,170.04,-1641.85,465.7,-1397.71,-389.4,1164.55,41.31,22.42,-14.17
1,30716,5,27.47,-1673.95,1241.82,1416.63,-841.67,-302.12,-2.33,44.30,4.82
2,30729,4,-200.32,-1533.81,546.02,1405.64,-1383.06,-511.47,-8.78,36.25,20.18
3,30741,0,0.0,,,,,,,,
4,30742,1,0.0,,,,,,,,
5,30744,0,0.0,,,,,,,,
6,30746,0,0.0,,,,,,,,
0,30749,5,-76.42,-1344.85,283.81,-675.66,-120.85,1166.99,40.49,12.44,-17.60
1,30761,6,454.22,-1121.7,994.38,781.86,-953.37,-481.57,-2.34,42.81,12.92
2,30774,5,-21.36,-1351.44,532.71,639.65,-734.86,-234.38,-7.39,33.01,26.93
3,30790,0,0.0,,,,,,,,
4,30791,0,0.0,,,,,,,,
5,30793,0,0.0,,,,,,,,
6,30795,0,0.0,,,,,,,,
0,30798,4,-325.56,-1195.07,48.34,-215.45,-366.82,966.8,39.47,7.24,-16.99
1,30811,4,-368.9,-1135.62,1191.53,327.76,-739.14,-34.18,-0.88,40.72,17.19
2,30823,5,-342.77,-1164.06,425.42,5.49,-352.78,-35.4,-6.34,31.60,28.14
3,30835,0,0.0,,,,,,,,
4,30836,0,0.0,,,,,,,,
5,30838,0,0.0,,,,,,,,
6,30840,0,0.0,,,,,,,,
0,30843,5,-176.64,-982.67,197.39,380.25,0.61,-100.71,37.7,3.83,-17.59
1,30860,4,-176.88,-1103.76,465.09,-603.64,386.35,-35.4,-1.1,41.98,15.53
2,30872,4,-158.94,-990.11,-40.28,-579.22,71.41,79.96,-5.37,32.34,27.48
3,30883,0,0.0,,,,,,,,
4,30885,0,0.0,,,,,,,,
5,30887,0,0.0,,,,,,,,
6,30888,0,0.0,,,,,,,,
0,30893,4,367.31,-173.34,1487.18,656.13,261.23,-572.51,38.01,5.27,-17.26
1,30905,4,-73.73,-1456.05,-344.36,-1033.94,335.08,6.1,-1.76,43.68,12.19
2,30917,4,-332.52,-1235.72,-401.49,-264.28,68.97,-59.81,-6.7,33.44,25.24
3,30932,0,0.0,,,,,,,,
4,30935,0,0.0,,,,,,,,
5,30936,1,0.0,,,,,,,,
6,30938,0,0.0,,,,,,,,
0,30942,4,249.02,-1012.21,967.41,969.24,-43.95,-81.18,39.59,8.51,-15.97
1,30953,4,-100.71,-1159.3,79.35,-784.3,-68.97,239.26,-1.76,43.68,12.19
2,30964,5,29.05,-1099.85,-233.64,-596.31,-89.72,-6.71,-5.65,35.03,24.22
3,30977,0,0.0,,,,,,,,
4,30979,0,0.0,,,,,,,,
5,30980,0,0.0,,,,,,,,
6,30982,0,0.0,,,,,,,,
0,30985,5,159.79,-970.09,890.63,567.02,83.01,-283.81,39.39,12.23,-16.37
1,30997,5,25.51,-879.64,213.38,-611.57,139.16,-17.09,-1.76,45.75,7.51
2,31013,4,-53.71,-1014.65,79.83,-592.65,-169.07,-253.3,-5.62,35.90,22.40
3,31026,0,0.0,,,,,,,,
4,31027,0,0.0,,,,,,,,
5,31029,0,0.0,,,,,,,,
6,31031,0,0.0,,,,,,,,
0,31034,4,195.8,-772.58,848.88,146.48,40.28,-73.24,39.66,14.10,-15.63
1,31046,4,0.24,-901.73,200.32,-145.26,21.97,-28.69,-0.92,46.07,4.03
2,31058,4,-166.75,-1021.85,-124.39,-454.71,-357.06,-196.53,-5.62,35.90,22.40
3,31069,1,0.0,,,,,,,,
4,31071,0,0.0,,,,,,,,
5,31077,0,0.0,,,,,,,,
6,31078,0,0.0,,,,,,,,
0,31082,4,228.27,-623.41,771.48,75.07,-25.02,-10.99,40.81,12.90,-16.21
1,31094,4,-37.84,-980.96,170.9,91.55,1.83,50.05,-0.96,46.50,3.69
2,31106,5,-237.06,-958.98,-145.02,-376.59,-191.04,-76.29,-5.33,37.04,21.96
3,31118,0,0.0,,,,,,,,
4,31120,0,0.0,,,,,,,,
5,31121,0,0.0,,,,,,,,
6,31123,0,0.0,,,,,,,,
0,31126,5,185.79,-597.29,783.57,62.26,-51.27,-39.06,41.54,13.55,-14.43
1,31138,5,-25.02,-1010.99,177.61,32.96,31.13,57.98,-1.14,46.74,2.84
2,31155,4,-66.04,-994.63,-137.33,-310.06,-106.81,-120.85,-5.76,37.44,19.93
3,31166,1,0.09775199999999999,,,,,,,,
4,31168,0,0.0,,,,,,,,
5,31170,0,0.0,,,,,,,,
6,31172,0,0.0,,,,,,,,
0,31175,4,113.53,-612.43,793.95,13.43,-161.74,-89.11,40.8,13.51,-15.06
1,31187,5,17.46,-1073.12,163.82,70.8,31.74,76.29,-0.38,46.80,3.26
2,31200,4,-216.06,-1048.46,-65.31,-332.64,-336.91,-65.31,-5.8,38.27,18.82
3,31211,1,0.09775199999999999,,,,,,,,
4,31213,0,0.0,,,,,,,,
5,31215,0,0.0,,,,,,,,
6,31220,0,0.0,,,,,,,,
0,31224,4,98.27,-567.02,790.04,41.5,-54.93,-25.02,39.66,13.92,-15.93
1,31236,5,-35.16,-999.76,176.03,59.81,24.41,2.44,-0.72,46.68,3.36
2,31248,5,-259.03,-999.63,-32.96,-358.28,-8.54,-1.22,-5.31,38.73,18.24
3,31260,0,0.0,,,,,,,,
4,31261,1,0.0,,,,,,,,
5,31263,0,0.0,,,,,,,,
6,31265,0,0.0,,,,,,,,
0,31268,4,116.82,-586.06,780.88,70.8,-43.95,-22.58,38.34,14.97,-16.72
1,31281,4,-34.18,-1003.91,177.49,43.33,40.28,41.5,-1.23,47.14,3.28
2,31297,4,-151.61,-1018.92,26.61,-356.45,173.95,9.16,-5.63,40.05,16.44
3,31308,0,0.0,,,,,,,,
4,31310,0,0.0,,,,,,,,
5,31311,1,0.0,,,,,,,,
6,31313,0,0.0,,,,,,,,
0,31316,6,74.46,-548.95,782.1,93.99,39.67,7.32,37.08,16.64,-17.27
1,31329,5,6.96,-1004.52,178.34,-26.25,11.6,-37.84,-0.56,46.78,2.73
2,31341,4,-184.69,-968.14,81.05,-342.41,229.49,-28.08,-6.07,40.98,13.92
3,31353,0,0.0,,,,,,,,
4,31354,0,0.0,,,,,,,,
5,31356,0,0.0,,,,,,,,
6,31358,0,0.0,,,,,,,,
0,31362,4,125.49,-629.88,765.99,103.15,65.92,-26.86,36.46,17.66,-16.24
1,31378,4,-5.49,-973.75,199.58,6.71,6.71,3.66,-0.5,47.05,2.60
2,31389,5,-143.92,-966.67,118.53,-260.62,235.6,2.44,-6.82,41.87,13.34
3,31401,0,0.0,,,,,,,,
4,31403,0,0.0,,,,,,,,
5,31405,0,0.0,,,,,,,,
6,31407,0,0.0,,,,,,,,
0,31410,4,106.69,-633.42,774.05,54.93,18.31,-17.7,35.62,18.63,-15.67
1,31422,4,-8.18,-957.4,205.44,25.63,10.38,19.53,-0.12,47.18,2.03
2,31434,4,-85.08,-973.63,130.98,-207.52,240.48,-9.16,-7.75,43.23,10.82
3,31450,0,0.0,,,,,,,,
4,31452,0,0.0,,,,,,,,
5,31453,0,0.0,,,,,,,,
6,31455,0,0.0,,,,,,,,
0,31458,5,148.19,-614.62,772.46,60.42,31.74,4.27,35.61,19.38,-15.10
1,31470,4,-58.59,-1006.84,214.84,0.0,64.7,0.0,-0.68,47.88,1.92
2,31482,4,-240.97,-977.54,158.81,-137.94,-126.95,-21.36,-7.7,42.46,11.16
3,31494,0,0.0,,,,,,,,
4,31496,0,0.0,,,,,,,,
5,31497,1,0.0,,,,,,,,
6,31499,0,0.0,,,,,,,,
0,31502,5,101.81,-614.01,774.9,76.29,-32.35,-29.3,34.66,20.18,-15.20
1,31518,5,3.78,-1010.62,203.49,44.56,9.16,67.75,-0.71,47.46,1.28
2,31531,4,-161.01,-1029.91,106.45,-166.02,-12.82,-7.93,-6.92,42.47,10.80
3,31542,0,0.0,,,,,,,,
4,31544,0,0.0,,,,,,,,
5,31546,0,0.0,,,,,,,,
6,31547,0,0.0,,,,,,,,
0,31551,4,127.44,-599.12,775.39,123.29,-21.36,-23.8,34.34,20.87,-16.43
1,31563,3,-26.25,-1009.03,215.94,2.44,46.39,81.79,-0.71,47.46,1.28
2,31574,5,-205.32,-1029.05,152.95,-241.09,46.39,20.14,-6.97,42.58,8.39
3,31586,0,0.0,,,,,,,,
4,31591,0,0.0,,,,,,,,
5,31593,0,0.0,,,,,,,,
6,31595,0,0.0,,,,,,,,
0,31598,4,115.72,-582.15,777.47,258.18,-108.03,-26.86,33.52,21.50,-15.37
1,31610,4,-26.49,-1026.98,234.01,-83.62,73.85,172.12,-0.09,48.02,0.87
2,31623,4,-237.18,-970.58,180.54,-307.62,12.21,83.01,-6.24,41.89,8.06
3,31634,0,0.0,,,,,,,,
4,31636,0,0.0,,,,,,,,
5,31637,1,0.0,,,,,,,,
6,31639,0,0.0,,,,,,,,
0,31642,5,81.67,-669.92,728.27,306.4,-249.02,-62.26,32.01,24.01,-15.63
1,31654,6,45.9,-980.22,253.54,-136.72,-14.65,294.8,0.98,48.07,0.37
2,31671,3,-151.37,-1001.59,229.74,-364.99,94.6,113.53,-6.24,41.89,8.06
3,31681,1,0.0,,,,,,,,
4,31683,0,0.0,,,,,,,,
5,31685,0,0.0,,,,,,,,
6,31686,1,0.0,,,,,,,,
0,31690,4,92.04,-680.18,740.72,302.12,-225.83,-92.16,31.29,24.63,-15.98
1,31703,4,56.03,-1045.53,293.7,-121.46,83.01,299.68,1.76,48.85,-0.90
2,31715,4,-140.63,-1000.49,281.37,-379.64,121.46,126.95,-5.46,42.13,6.67
3,31726,0,0.0,,,,,,,,
4,31728,0,0.0,,,,,,,,
5,31729,1,0.0,,,,,,,,
6,31735,0,0.195695,,,,,,,,
0,31738,6,-17.09,-715.7,724.85,377.2,-186.16,-92.77,30.14,26.06,-16.86
1,31751,5,134.64,-1013.18,288.57,-178.83,15.26,202.64,3.14,48.91,-1.76
2,31763,5,-49.56,-1015.26,280.27,-388.18,151.37,123.9,-4.66,41.47,4.35
3,31775,0,0.0,,,,,,,,
4,31776,1,0.0,,,,,,,,
5,31778,0,0.0,,,,,,,,
6,31780,0,0.29383000000000004,,,,,,,,
0,31783,5,-15.75,-739.87,715.09,460.82,-110.47,-63.48,30.14,26.06,-16.86
1,31795,5,135.01,-1063.48,309.33,-252.69,-34.79,122.07,4.17,49.30,-3.44
2,31811,4,-26.49,-1060.79,337.65,-447.39,123.9,110.47,-4.33,42.32,2.51
3,31822,1,0.0,,,,,,,,
4,31824,0,0.0,,,,,,,,
5,31826,0,0.0,,,,,,,,
6,31827,1,0.195695,,,,,,,,
0,31832,4,-95.83,-748.05,735.47,646.97,-9.16,37.23,30.44,27.29,-15.88
1,31844,4,187.13,-1226.68,337.04,-365.6,-135.5,-32.35,4.92,49.15,-4.88
2,31856,4,-83.98,-1260.01,281.62,-529.79,242.92,120.85,-3.45,43.35,-0.85
3,31867,0,0.0,,,,,,,,
4,31869,0,0.0,,,,,,,,
5,31872,0,0.0,,,,,,,,
6,31873,0,0.0,,,,,,,,
0,31880,5,73.97,-786.38,844.73,1143.8,46.39,40.89,31.01,27.91,-15.78
1,31892,5,-81.91,-1680.54,338.01,-833.74,-78.12,-45.78,4.5,48.84,-5.76
2,31904,4,-183.23,-1601.32,146.24,-798.34,500.49,174.56,-3.37,43.55,-3.64
3,31917,0,0.0,,,,,,,,
4,31918,0,0.0,,,,,,,,
5,31920,0,0.0,,,,,,,,
6,31922,0,0.0,,,,,,,,
0,31925,4,-202.15,-895.39,985.23,1814.58,659.18,-68.36,32.45,30.42,-13.76
1,31937,4,76.42,-2113.89,221.44,-1604.0,11.6,-415.04,5.05,47.66,-11.99
2,31953,5,134.28,-1818.24,-140.75,-1165.77,924.07,269.17,-3.31,43.82,-6.98
3,31965,1,0.0,,,,,,,,
4,31967,0,0.0,,,,,,,,
5,31969,0,0.0,,,,,,,,
6,31970,1,0.0,,,,,,,,
0,31974,4,694.21,-1472.05,1183.59,2394.41,963.13,-50.05,33.39,35.62,-7.51
1,31986,4,125.98,-1657.1,47.0,-2373.05,56.76,106.81,3.02,43.90,-20.80
2,31998,5,131.96,-1011.72,63.35,-1110.23,342.41,191.04,-1.9,42.98,-11.99
3,32010,0,0.0,,,,,,,,
4,32012,0,0.0,,,,,,,,
5,32014,0,0.0,,,,,,,,
6,32015,0,0.0,,,,,,,,
0,32019,4,156.62,-760.86,435.67,1741.33,280.15,-588.99,35.3,40.63,0.63
1,32034,5,-207.03,368.65,-386.96,-2349.85,220.34,202.03,5.64,38.95,-29.04
2,32047,5,-45.29,-565.31,646.36,-636.6,352.17,147.71,0.42,40.81,-16.14
3,32059,0,0.0,,,,,,,,
4,32060,1,0.0,,,,,,,,
5,32062,0,0.0,,,,,,,,
6,32064,0,0.0,,,,,,,,
0,32067,5,779.91,-525.63,816.77,224.0,1289.06,-24.41,33.74,43.20,6.47
1,32079,4,-101.93,-622.56,-320.07,429.08,397.95,-625.61,4.52,35.88,-31.74
2,32092,4,-41.38,-233.52,-142.94,145.87,573.12,-192.87,1.94,39.76,-17.33
3,32107,0,0.0,,,,,,,,
4,32109,0,0.0,,,,,,,,
5,32111,0,0.0,,,,,,,,
6,32112,0,0.0,,,,,,,,
0,32116,4,196.78,-380.37,677.86,-898.44,386.35,-176.39,33.56,44.03,8.50
1,32129,4,87.16,-245.73,-470.34,1243.9,435.79,-324.1,5.66,37.44,-29.39
2,32141,4,61.65,-132.45,-96.92,769.04,328.37,-276.49,2.03,39.97,-16.11
3,32152,0,0.0,,,,,,,,
4,32154,0,0.0,,,,,,,,
5,32155,0,0.0,,,,,,,,
6,32157,0,0.0,,,,,,,,
0,32160,5,211.3,-404.79,558.11,-1490.48,109.25,235.6,32.6,43.07,5.36
1,32177,4,-75.32,-439.82,-283.45,1920.78,7.32,-360.11,4.55,40.98,-25.42
2,32189,4,8.3,-473.75,-7.2,1457.52,222.78,-449.22,1.35,42.13,-13.06
3,32200,1,0.0,,,,,,,,
4,32202,0,0.0,,,,,,,,
5,32204,0,0.0,,,,,,,,
6,32205,1,0.0,,,,,,,,
0,32209,5,79.59,-621.7,536.5,-1972.05,264.89,769.65,34.64,39.39,0.22
1,32222,3,-364.01,-907.84,-26.25,2241.82,-108.03,-678.71,4.55,40.98,-25.42
2,32233,4,-126.83,-701.78,24.41,1918.33,93.99,-631.1,-1.6,43.16,-5.59
3,32248,0,0.0,,,,,,,,
4,32250,0,0.0,,,,,,,,
5,32251,0,0.0,,,,,,,,
6,32253,0,0.0,,,,,,,,
0,32257,5,153.32,-1001.83,697.27,-2098.39,455.93,891.11,37.65,34.02,-4.74
1,32269,5,-187.74,-1341.43,187.26,2366.94,-133.67,-855.1,2.31,43.46,-16.94
2,32281,5,15.99,-1194.21,102.78,2183.23,33.57,-814.21,-5.07,41.70,3.42
3,32293,0,0.0,,,,,,,,
4,32294,1,0.0,,,,,,,,
5,32296,0,0.0,,,,,,,,
6,32299,0,0.0,,,,,,,,
0,32302,5,467.53,-1211.06,758.42,-1918.33,524.9,1218.87,40.92,25.59,-8.79
1,32318,4,141.48,-1789.79,593.99,2053.83,-635.38,-774.54,-1.15,44.76,-7.50
2,32330,4,147.22,-1670.17,349.12,2164.31,-164.79,-628.66,-7.32,39.05,10.51
3,32343,0,0.0,,,,,,,,
4,32344,0,0.0,,,,,,,,
5,32346,0,0.0,,,,,,,,
6,32348,0,0.0,,,,,,,,
0,32351,4,341.43,-1583.37,583.5,-1356.81,323.49,1656.49,44.12,16.60,-10.86
1,32363,4,-11.35,-1890.26,1147.95,1550.9,-1145.02,-972.9,-3.66,43.46,-0.27
2,32375,4,118.41,-1746.95,509.16,1799.93,-575.56,-584.11,-7.32,39.05,10.51
3,32391,0,0.0,,,,,,,,
4,32392,0,0.0,,,,,,,,
5,32394,0,0.0,,,,,,,,
6,32396,0,0.0,,,,,,,,
0,32399,4,382.81,-1417.36,317.87,-605.47,-151.98,1492.31,45.47,9.79,-11.33
1,32411,4,-416.75,-1427.37,1131.35,750.73,-1014.4,-279.54,-6.1,40.78,7.31
2,32423,5,-283.57,-1434.94,426.39,1161.5,-606.08,-446.78,-8.76,35.62,18.54
3,32436,0,0.0,,,,,,,,
4,32437,1,0.0,,,,,,,,
5,32439,0,0.0,,,,,,,,
6,32441,0,0.0,,,,,,,,
0,32444,4,-15.87,-1676.64,472.9,-388.18,-178.83,737.92,44.73,5.16,-12.35
1,32468,5,-345.58,-1287.6,949.58,865.48,-473.02,-294.8,-4.85,39.21,11.04
2,32481,4,-220.83,-1265.01,283.69,532.23,-195.92,-234.99,-8.68,30.21,24.91
3,32492,0,0.0,,,,,,,,
4,32494,0,0.0,,,,,,,,
5,32496,0,0.0,,,,,,,,
6,32497,0,0.0,,,,,,,,
0,32501,4,-51.51,-937.74,140.14,-68.36,147.09,140.38,44.43,2.67,-11.98
1,32514,4,-246.7,-993.77,933.72,-21.36,129.39,-193.48,-4.7,38.23,14.04
2,32526,3,-66.41,-1153.93,320.92,-214.84,221.56,5.49,-8.68,30.21,24.91
3,32540,0,0.0,,,,,,,,
4,32542,0,0.0,,,,,,,,
5,32543,0,0.0,,,,,,,,
6,32545,0,0.0,,,,,,,,
0,32548,5,242.31,-911.87,354.25,264.89,114.75,-300.29,44.74,2.29,-11.34
1,32561,5,-782.71,-2283.2,887.33,-178.22,247.8,22.58,-4.79,37.45,13.50
2,32573,4,-124.39,-1053.59,-67.87,-538.33,-14.65,75.07,-9.13,30.60,23.66
3,32585,0,0.0,,,,,,,,
4,32586,0,0.0,,,,,,,,
5,32588,0,0.0,,,,,,,,
6,32590,0,0.0,,,,,,,,
0,32593,5,939.94,-130.0,1201.66,646.36,-28.08,-397.95,44.84,5.68,-11.01
1,32610,4,-476.56,-1278.69,-186.16,-1101.07,262.45,750.12,-5.63,38.88,10.95
2,32622,4,-440.55,-1109.01,-229.74,-392.46,12.21,-97.05,-8.73,32.31,23.14
3,32633,1,0.0,,,,,,,,
4,32635,0,0.0,,,,,,,,
5,32637,0,0.0,,,,,,,,
6,32638,2,0.0,,,,,,,,
0,32643,4,766.24,-1406.62,890.5,853.88,-511.47,-432.13,44.75,8.78,-11.69
1,32655,4,-194.46,-751.22,313.11,-730.59,228.27,722.66,-3.13,41.72,6.73
2,32667,4,-282.23,-1398.93,98.02,-869.14,-1.83,-105.59,-9.24,33.26,21.83
3,32683,0,0.0,,,,,,,,
4,32685,0,0.0,,,,,,,,
5,32686,1,0.0,,,,,,,,
6,32688,0,0.0,,,,,,,,
0,32691,5,-52.12,-772.34,983.89,474.24,-347.29,-159.3,43.75,10.84,-13.32
1,32703,5,107.06,-966.43,156.86,-165.41,70.8,307.62,-0.6,43.47,4.35
2,32715,5,148.68,-769.9,-68.97,-729.98,172.73,84.84,-9.74,36.00,19.98
3,32728,0,0.0,,,,,,,,
4,32729,0,0.0,,,,,,,,
5,32731,0,0.0,,,,,,,,
6,32733,0,0.0,,,,,,,,
0,32736,4,228.52,-637.08,774.05,258.79,81.18,19.53,43.79,11.06,-13.38
1,32752,4,-100.34,-986.94,123.29,-61.04,7.32,-136.72,-0.71,44.07,4.36
2,32763,6,-100.95,-976.81,-54.32,-524.9,-10.99,-93.38,-10.63,38.07,16.87
3,32776,0,0.0,,,,,,,,
4,32778,0,0.0,,,,,,,,
5,32779,0,0.0,,,,,,,,
6,32781,0,0.0,,,,,,,,
0,32784,5,309.94,-607.54,744.75,204.47,260.01,98.27,44.69,11.44,-12.18
1,32796,5,-188.6,-1021.24,142.82,-34.79,-27.47,-250.24,-1.25,43.44,2.82
2,32808,6,-462.04,-974.98,50.17,-369.26,-99.49,-87.28,-10.82,38.83,14.83
3,32821,0,0.0,,,,,,,,
4,32826,1,0.09775199999999999,,,,,,,,
5,32828,0,0.0,,,,,,,,
6,32830,0,0.0,,,,,,,,
0,32833,5,320.07,-576.17,722.05,175.17,291.14,114.75,45.86,12.38,-12.10
1,32845,4,-197.88,-1031.25,152.22,-4.88,2.44,-209.96,-2.12,43.23,3.48
2,32858,4,-129.27,-1018.68,-68.6,-298.46,196.53,-62.26,-11.89,40.47,14.42
3,32870,0,0.0,,,,,,,,
4,32871,0,0.29383000000000004,,,,,,,,
5,32873,0,0.0,,,,,,,,
6,32875,0,0.0,,,,,,,,
0,32878,4,343.38,-599.73,711.3,191.04,337.52,111.69,46.7,12.06,-10.82
1,32890,4,-210.33,-1015.5,167.48,-43.95,28.08,-258.18,-2.39,42.79,2.95
2,32907,4,-400.63,-977.66,33.33,-311.89,-24.41,1.22,-11.25,40.31,12.28
3,32918,0,0.0,,,,,,,,
4,32920,0,0.39215700000000003,,,,,,,,
5,32922,0,0.0,,,,,,,,
6,32923,0,0.0,,,,,,,,
0,32927,4,463.26,-590.45,637.94,184.94,197.14,-19.53,48.1,12.10,-9.58
1,32940,4,-221.44,-1003.54,176.76,-17.09,86.67,-65.31,-3.09,43.14,2.44
2,32951,5,-220.95,-1011.23,50.29,-283.81,108.64,67.14,-11.16,40.78,11.90
3,32963,0,0.0,,,,,,,,
4,32965,0,0.49067700000000003,,,,,,,,
5,32970,0,0.0,,,,,,,,
6,32972,0,0.0,,,,,,,,
0,32975,5,349.37,-636.96,669.92,184.33,133.67,-13.43,48.03,12.78,-9.30
1,32988,5,-137.45,-1009.4,194.7,1.22,42.72,-74.46,-2.91,43.12,2.58
2,33000,4,-138.43,-1001.22,50.05,-267.94,14.65,64.09,-10.8,41.05,10.73
3,33011,1,0.0,,,,,,,,
4,33013,0,0.49067700000000003,,,,,,,,
5,33015,0,0.0,,,,,,,,
6,33016,1,0.0,,,,,,,,
0,33020,5,413.33,-627.44,635.13,200.81,167.85,4.88,48.72,14.11,-9.16
1,33033,3,-231.57,-957.28,206.18,-72.02,54.32,-147.09,-2.91,43.12,2.58
2,33048,4,-236.21,-952.39,118.29,-273.44,29.3,55.54,-10.41,41.06,9.33
3,33059,0,0.0,,,,,,,,
4,33061,0,0.49067700000000003,,,,,,,,
5,33062,1,0.0,,,,,,,,
6,33064,0,0.0,,,,,,,,
0,33068,5,442.75,-634.89,601.32,180.66,82.4,-34.18,48.68,14.21,-9.35
1,33080,5,-254.27,-936.89,220.58,-47.0,58.59,-44.56,-4.22,43.59,0.56
2,33092,4,-162.96,-943.97,174.93,-251.46,87.89,43.95,-10.67,41.37,9.42
3,33104,0,0.0,,,,,,,,
4,33105,0,0.49067700000000003,,,,,,,,
5,33107,0,0.0,,,,,,,,
6,33110,0,0.0,,,,,,,,
0,33132,4,447.51,-641.6,587.89,141.6,-5.49,-62.87,47.46,15.27,-8.01
1,33145,5,-265.63,-932.5,237.55,6.71,69.58,68.97,-3.88,42.68,0.09
2,33158,5,-173.83,-955.08,203.37,-239.26,17.09,29.3,-10.16,41.59,6.68
3,33170,0,0.0,,,,,,,,
4,33171,1,0.49067700000000003,,,,,,,,
5,33173,0,0.0,,,,,,,,
6,33175,0,0.0,,,,,,,,
0,33178,5,359.86,-679.69,630.37,125.73,-10.38,-55.54,47.64,15.54,-8.90
1,33190,5,-174.32,-1019.9,240.6,14.65,46.39,36.62,-3.83,43.14,-0.26
2,33203,4,-117.68,-1026.98,177.37,-223.39,83.62,29.91,-9.61,41.55,6.19
3,33218,0,0.0,,,,,,,,
4,33220,0,0.49067700000000003,,,,,,,,
5,33222,0,0.0,,,,,,,,
6,33223,0,0.0,,,,,,,,
0,33227,4,335.82,-697.75,619.87,167.24,78.74,-7.93,47.33,16.70,-9.39
1,33240,4,-158.45,-990.48,256.1,-54.32,-10.38,-100.71,-3.92,43.99,-0.18
2,33251,5,-129.15,-1010.13,187.13,-255.13,18.92,10.99,-9.63,41.65,3.78
3,33263,0,0.0,,,,,,,,
4,33265,0,0.39215700000000003,,,,,,,,
5,33266,1,0.09775199999999999,,,,,,,,
6,33268,0,0.0,,,,,,,,
0,33272,4,442.38,-666.87,574.34,192.26,97.66,-12.21,47.74,17.24,-8.36
1,33288,5,-237.43,-997.44,271.36,-95.21,-44.56,-61.04,-4.21,43.02,-1.16
2,33300,5,-193.36,-1016.11,185.79,-319.82,56.15,51.27,-9.18,41.76,3.42
3,33312,0,0.0,,,,,,,,
4,33313,1,0.195695,,,,,,,,
5,33315,0,0.195695,,,,,,,,
6,33317,0,0.0,,,,,,,,
0,33320,6,463.5,-677.49,569.34,277.1,12.21,-60.42,47.64,18.59,-7.62
1,33333,3,-323.49,-1051.64,282.1,-155.64,-51.27,59.81,-4.21,43.02,-1.16
2,33344,4,-275.39,-1063.84,218.75,-430.3,-32.96,103.76,-8.51,41.61,2.50
3,33359,1,0.0,,,,,,,,
4,33361,0,0.0,,,,,,,,
5,33363,0,0.29383000000000004,,,,,,,,
6,33364,2,0.0,,,,,,,,
0,33369,4,520.51,-739.62,577.27,401.0,-258.18,-211.18,46.18,20.41,-8.90
1,33381,4,-419.68,-1055.79,296.26,-269.17,22.58,330.2,-3.96,43.74,-1.97
2,33393,4,-289.55,-1080.81,305.42,-523.07,-71.41,186.77,-7.57,41.74,0.70
3,33404,0,0.0,,,,,,,,
4,33406,0,0.0,,,,,,,,
5,33409,0,0.29383000000000004,,,,,,,,
6,33410,1,0.0,,,,,,,,
0,33414,4,294.07,-756.23,662.35,448.0,-281.98,-160.52,42.8,24.87,-8.09
1,33430,4,-46.14,-1288.7,297.12,-404.05,51.27,237.43,-3.3,44.02,-3.37
2,33441,4,-11.84,-1369.26,152.47,-640.87,139.77,300.9,-7.57,41.74,0.70
3,33453,0,0.0,,,,,,,,
4,33455,0,0.0,,,,,,,,
5,33456,0,0.195695,,,,,,,,
6,33458,0,0.0,,,,,,,,
0,33461,5,293.09,-705.08,847.78,1085.82,-56.76,-25.63,40.21,30.05,-6.54
1,33473,5,-269.78,-1770.26,236.69,-1048.58,32.35,-64.7,-2.55,44.21,-4.66
2,33485,5,-180.18,-1706.18,-40.65,-919.8,285.64,399.78,-5.46,40.77,-2.58
3,33502,0,0.0,,,,,,,,
4,33503,0,0.0,,,,,,,,
5,33505,0,0.0,,,,,,,,
6,33507,0,0.0,,,,,,,,
0,33510,4,320.68,-769.53,962.77,2083.13,473.63,-157.47,40.3,34.11,-2.70
1,33522,4,-241.09,-2206.66,182.86,-2067.87,184.33,-294.8,-2.43,43.65,-9.44
2,33534,5,45.29,-1766.24,-151.73,-1231.08,667.11,374.76,-2.92,40.19,-6.59
3,33547,0,0.0,,,,,,,,
4,33548,0,0.0,,,,,,,,
5,33550,0,0.0,,,,,,,,
6,33552,0,0.0,,,,,,,,
0,33555,3,604.74,-1275.27,992.07,2536.62,921.63,-846.56,40.3,34.11,-2.70
1,33570,4,-272.95,-1787.11,49.19,-3010.86,238.04,-202.03,-3.05,40.70,-19.14
2,33583,4,-261.96,-1254.88,108.28,-1078.49,456.54,278.93,-1.72,39.72,-11.83
3,33595,0,0.0,,,,,,,,
4,33596,0,0.0,,,,,,,,
5,33598,0,0.0,,,,,,,,
6,33600,0,0.0,,,,,,,,
0,33603,4,620.73,-1116.94,556.03,1706.54,399.17,-1183.47,41.27,38.95,6.71
1,33615,4,-482.91,309.08,-807.74,-2354.74,650.63,-192.26,-2.55,34.45,-29.55
2,33628,4,-146.48,-446.04,787.6,-725.71,126.34,392.46,-0.33,38.81,-15.95
3,33643,0,0.0,,,,,,,,
4,33645,0,0.0,,,,,,,,
5,33647,0,0.0,,,,,,,,
6,33648,0,0.0,,,,,,,,
0,33652,4,374.15,150.88,770.51,-1452.03,518.8,-1190.19,37.49,44.68,12.17
1,33665,4,-562.01,-1444.7,-625.49,1084.59,1720.58,504.76,-0.45,32.57,-32.02
2,33677,4,-377.32,-236.08,-256.59,281.98,374.15,6.71,1.07,37.50,-17.83
3,33688,0,0.0,,,,,,,,
4,33690,0,0.0,,,,,,,,
5,33691,1,0.0,,,,,,,,
6,33693,0,0.0,,,,,,,,
0,33697,4,739.62,-291.99,480.47,-1674.19,170.29,-1077.88,34.68,45.36,10.66
1,33713,5,524.66,-296.75,-551.03,1804.2,861.82,437.01,4.15,36.47,-29.50
2,33725,5,288.82,-165.65,-142.09,1105.96,576.17,-83.01,2.05,39.54,-16.47
3,33737,0,0.0,,,,,,,,
4,33738,1,0.0,,,,,,,,
5,33740,0,0.0,,,,,,,,
6,33742,0,0.0,,,,,,,,
0,33745,6,446.78,-334.84,389.04,-1790.77,-213.62,572.51,31.85,45.23,4.31
1,33758,4,-165.28,-611.57,-168.09,2078.25,-344.85,-130.0,5.02,40.63,-23.06
2,33770,5,-106.45,-526.98,16.72,1673.58,-184.94,-455.32,1.42,40.61,-11.89
3,33786,0,0.0,,,,,,,,
4,33787,0,0.0,,,,,,,,
5,33789,0,0.0,,,,,,,,
6,33792,0,0.0,,,,,,,,
0,33795,4,334.23,-691.28,466.43,-1845.7,160.52,1137.7,33.51,40.84,-1.50
1,33807,4,-443.6,-962.77,78.12,2192.38,-459.59,-596.31,1.81,44.09,-15.47
2,33819,4,-147.58,-887.21,136.72,2028.2,-321.04,-700.68,-1.75,42.49,-5.99
3,33831,0,0.0,,,,,,,,
4,33832,0,0.0,,,,,,,,
5,33835,0,0.0,,,,,,,,
6,33837,0,0.0,,,,,,,,
0,33840,4,390.5,-1114.26,719.12,-1954.96,387.57,1209.72,38.5,34.03,-6.19
1,33856,4,-78.98,-1491.21,321.9,2270.51,-545.04,-771.48,-1.38,44.62,-7.40
2,33868,4,-62.87,-1344.24,203.61,2235.72,-428.47,-798.34,-4.72,41.43,3.70
3,33880,1,0.0,,,,,,,,
4,33882,0,0.0,,,,,,,,
5,33884,0,0.0,,,,,,,,
6,33885,1,0.0,,,,,,,,
0,33889,4,327.51,-1347.05,789.79,-1708.98,137.94,1481.32,41.78,25.02,-8.58
1,33901,4,-93.87,-1745.12,754.88,2011.11,-855.71,-739.14,-4.77,42.42,3.10
2,33913,4,28.69,-1669.31,419.92,2199.71,-247.8,-628.66,-7.32,38.09,12.06
3,33929,0,0.0,,,,,,,,
4,33931,0,0.0,,,,,,,,
5,33933,0,0.0,,,,,,,,
6,33934,0,0.0,,,,,,,,
0,33938,4,298.83,-1595.21,570.19,-1372.07,-12.21,1470.34,44.45,15.97,-10.34
1,33950,4,-414.31,-1628.42,1244.14,1422.73,-938.11,-646.36,-5.31,38.99,8.90
2,33963,4,-73.97,-1723.75,683.59,1694.95,-563.96,-619.51,-9.18,34.24,20.32
3,33974,0,0.0,,,,,,,,
4,33976,0,0.0,,,,,,,,
5,33978,0,0.0,,,,,,,,
6,33979,0,0.0,,,,,,,,
0,33983,4,358.15,-1603.88,149.17,-808.72,223.39,1275.02,44.58,8.61,-10.68
1,33999,4,23.56,-1425.42,1403.44,820.31,-872.8,-724.49,-6.18,36.06,13.39
2,34012,4,3.66,-1446.53,647.46,1013.79,-337.52,-346.07,-9.36,29.75,24.46
3,34023,0,0.0,,,,,,,,
4,34025,0,0.0,,,,,,,,
5,34026,1,0.0,,,,,,,,
6,34028,0,0.0,,,,,,,,
0,34031,5,5.98,-1461.06,-19.17,82.4,-90.94,1015.01,44.03,3.41,-9.56
1,34043,5,-495.97,-823.12,1484.62,-23.8,-691.53,-102.54,-6.18,36.06,13.39
2,34055,5,-107.06,-1364.5,825.81,88.5,-170.9,-91.55,-9.13,28.52,24.83
3,34071,0,0.0,,,,,,,,
4,34072,0,0.0,,,,,,,,
5,34074,0,0.0,,,,,,,,
6,34076,0,0.0,,,,,,,,
0,34079,4,-24.29,-1019.29,-179.44,512.08,315.55,-358.28,43.36,2.21,-9.38
1,34092,4,-246.83,-179.2,753.91,-1376.95,617.68,343.63,-5.13,35.06,14.93
2,34104,4,-72.88,-1157.35,488.65,-691.53,164.79,144.65,-8.85,28.94,24.57
3,34115,1,0.0,,,,,,,,
4,34117,0,0.0,,,,,,,,
5,34119,0,0.0,,,,,,,,
6,34120,1,0.0,,,,,,,,
0,34124,4,1199.46,-182.37,1186.04,430.91,-117.8,-842.9,43.25,6.35,-9.84
1,34141,4,-15.38,-1191.77,46.88,-1191.41,402.22,1058.35,-5.68,36.85,12.83
2,34153,4,-213.38,-1398.07,14.28,-577.39,291.14,115.97,-9.69,30.92,21.63
3,34164,0,0.0,,,,,,,,
4,34166,0,0.0,,,,,,,,
5,34167,1,0.0,,,,,,,,
6,34169,0,0.0,,,,,,,,
0,34173,5,77.64,-1014.04,943.24,610.35,-648.19,-161.13,42.3,9.55,-10.28
1,34185,5,54.69,-1183.96,109.01,-239.87,122.68,703.74,-3.5,39.69,8.87
2,34197,4,303.83,-1311.04,-349.12,-756.23,228.88,188.6,-9.69,30.92,21.63
3,34208,0,0.0,,,,,,,,
4,34213,0,0.0,,,,,,,,
5,34215,0,0.0,,,,,,,,
6,34217,0,0.0,,,,,,,,
0,34221,4,151.49,-646.12,821.66,490.11,-172.12,-71.41,42.59,9.83,-11.46
1,34233,4,-66.04,-946.9,121.58,-206.91,36.62,21.36,-1.72,41.52,6.96
2,34245,4,-220.46,-861.94,-2.56,-631.1,-275.27,-6.1,-11.1,34.36,19.08
3,34256,0,0.0,,,,,,,,
4,34258,0,0.0,,,,,,,,
5,34260,0,0.0,,,,,,,,
6,34262,0,0.0,,,,,,,,
0,34266,4,284.18,-651.73,779.91,311.89,27.47,-10.99,43.25,10.28,-11.96
1,34277,5,-103.88,-893.8,181.64,-151.37,25.02,-33.57,-1.62,41.39,6.23
2,34293,4,-206.79,-958.98,19.53,-462.65,-58.59,-43.95,-11.29,35.57,16.31
3,34306,0,0.0,,,,,,,,
4,34307,0,0.09775199999999999,,,,,,,,
5,34309,0,0.0,,,,,,,,
6,34311,0,0.0,,,,,,,,
0,34314,4,303.1,-600.1,753.78,141.6,197.75,53.1,43.99,10.50,-12.13
1,34326,4,-134.4,-992.68,161.13,-28.69,3.05,-178.22,-1.27,42.11,5.68
2,34338,4,-153.81,-1000.61,-15.99,-308.84,177.0,-78.74,-11.8,37.22,15.11
3,34350,1,0.0,,,,,,,,
4,34352,0,0.195695,,,,,,,,
5,34358,0,0.0,,,,,,,,
6,34359,0,0.0,,,,,,,,
0,34363,4,381.1,-618.77,727.17,84.23,253.3,66.53,44.57,10.75,-10.03
1,34375,4,-158.2,-963.99,172.36,14.65,-6.71,-206.3,-2.72,41.32,4.71
2,34386,6,-278.44,-991.33,-16.85,-281.37,-70.8,-47.0,-12.08,37.60,14.62
3,34399,0,0.0,,,,,,,,
4,34401,0,0.39215700000000003,,,,,,,,
5,34402,0,0.0,,,,,,,,
6,34404,0,0.0,,,,,,,,
0,34407,5,522.46,-532.71,653.56,57.37,227.05,23.8,45.58,9.58,-9.35
1,34419,5,-260.62,-946.53,173.22,17.09,51.27,-85.45,-3.02,41.32,4.63
2,34436,4,-283.08,-948.36,38.33,-256.96,-71.41,-32.96,-12.89,37.94,13.06
3,34447,0,0.0,,,,,,,,
4,34449,0,0.39215700000000003,,,,,,,,
5,34451,0,0.0,,,,,,,,
6,34452,1,0.0,,,,,,,,
0,34456,4,452.39,-563.11,670.9,68.36,-138.55,-99.49,45.54,10.41,-10.57
1,34468,4,-197.51,-1017.7,161.99,66.53,100.1,194.7,-2.86,41.50,4.33
2,34481,4,-220.7,-1059.57,-18.55,-258.79,-84.23,18.92,-11.96,38.40,12.28
3,34492,0,0.0,,,,,,,,
4,34494,0,0.29383000000000004,,,,,,,,
5,34496,0,0.0,,,,,,,,
6,34497,0,0.0,,,,,,,,
0,34504,5,444.09,-544.92,642.33,103.76,-273.44,-161.74,44.76,11.30,-10.78
1,34516,6,-220.58,-986.82,170.41,18.31,122.07,214.84,-2.54,42.29,4.47
2,34529,5,-322.39,-956.79,51.51,-344.85,-368.65,-24.41,-11.41,38.16,12.44
3,34541,0,0.0,,,,,,,,
4,34542,1,0.195695,,,,,,,,
5,34544,0,0.0,,,,,,,,
6,34546,0,0.0,,,,,,,,
0,34549,5,476.44,-652.34,658.2,79.96,-572.51,-289.92,41.72,13.70,-12.12
1,34562,5,-229.49,-971.31,167.36,31.74,178.83,471.8,-0.96,42.63,3.36
2,34578,4,-190.19,-1022.46,123.66,-244.75,-204.47,57.98,-10.61,38.17,11.17
3,34590,0,0.0,,,,,,,,
4,34591,0,0.09775199999999999,,,,,,,,
5,34593,0,0.0,,,,,,,,
6,34595,0,0.0,,,,,,,,
0,34598,5,163.82,-589.36,764.28,-121.46,-400.39,-172.73,38.17,16.00,-14.33
1,34611,4,-11.11,-1014.65,184.81,17.7,90.94,263.06,-0.11,43.52,2.49
2,34623,4,-1.34,-956.54,83.01,-300.9,-166.63,0.61,-9.81,38.62,10.02
3,34634,0,0.0,,,,,,,,
4,34636,0,0.0,,,,,,,,
5,34638,0,0.0,,,,,,,,
6,34639,0,0.0,,,,,,,,
0,34643,5,270.02,-598.88,740.11,-1.22,-220.95,-128.17,36.39,17.08,-12.79
1,34659,5,-116.09,-989.99,187.74,22.58,70.8,186.77,-0.01,43.58,2.72
2,34671,5,-310.3,-1003.91,166.63,-288.7,-220.95,37.84,-9.24,38.65,9.14
3,34683,0,0.0,,,,,,,,
4,34684,1,0.0,,,,,,,,
5,34686,0,0.0,,,,,,,,
6,34689,0,0.0,,,,,,,,
0,34692,3,189.58,-602.78,783.81,64.7,-134.28,-106.81,36.39,17.08,-12.79
1,34703,3,-79.83,-1059.33,192.26,3.05,70.19,156.25,-0.01,43.58,2.72
2,34714,4,-177.86,-1027.83,123.29,-315.55,96.44,71.41,-9.09,38.90,9.09
3,34729,0,0.0,,,,,,,,
4,34732,0,0.0,,,,,,,,
5,34733,0,0.0,,,,,,,,
6,34735,0,0.0,,,,,,,,
0,34738,5,111.57,-591.55,797.36,153.81,-33.57,-81.79,35.25,17.36,-13.54
1,34750,5,32.71,-1138.18,206.79,-75.68,-22.58,40.28,1.17,44.07,1.61
2,34762,4,-169.68,-1097.53,138.18,-403.44,148.32,106.2,-8.11,39.14,7.25
3,34775,0,0.0,,,,,,,,
4,34776,0,0.0,,,,,,,,
5,34778,0,0.0,,,,,,,,
6,34780,0,0.0,,,,,,,,
0,34783,4,162.84,-620.48,787.48,322.88,123.9,-20.14,35.35,18.20,-14.59
1,34799,4,-5.98,-1173.22,250.73,-307.62,-102.54,-119.63,1.66,43.59,1.34
2,34810,6,-217.77,-1112.43,193.36,-505.98,168.46,193.48,-7.39,40.15,5.18
3,34823,0,0.0,,,,,,,,
4,34825,0,0.0,,,,,,,,
5,34826,1,0.09775199999999999,,,,,,,,
6,34828,0,0.0,,,,,,,,
0,34832,4,266.11,-636.23,777.95,572.51,209.35,-25.63,35.5,18.95,-14.01
1,34843,5,-152.83,-1182.86,289.67,-434.57,-94.6,-100.71,1.18,44.31,-0.46
2,34855,5,-279.05,-1114.14,208.01,-615.84,208.13,257.57,-7.39,40.15,5.18
3,34871,0,0.0,,,,,,,,
4,34872,0,0.0,,,,,,,,
5,34874,0,0.0,,,,,,,,
6,34876,0,0.0,,,,,,,,
0,34879,4,296.75,-665.77,734.74,953.98,-19.53,-81.18,35.84,21.34,-12.71
1,34891,4,-125.12,-1329.71,301.76,-547.49,-47.0,92.77,1.31,44.49,-1.82
2,34904,4,-149.29,-1341.67,179.57,-787.35,269.78,305.79,-6.46,40.12,3.47
3,34915,1,0.0,,,,,,,,
4,34917,0,0.0,,,,,,,,
5,34919,0,0.0,,,,,,,,
6,34920,0,0.0,,,,,,,,
0,34924,4,184.08,-700.68,923.83,1373.9,108.03,-137.94,34.92,25.73,-11.74
1,34940,5,-214.6,-1987.06,189.09,-1178.59,26.25,-89.11,1.51,44.69,-5.54
2,34953,4,-244.02,-1750.37,-11.72,-1009.52,491.94,400.39,-4.8,39.51,-0.74
3,34964,0,0.0,,,,,,,,
4,34966,0,0.0,,,,,,,,
5,34967,1,0.0,,,,,,,,
6,34969,0,0.0,,,,,,,,
0,34973,4,196.66,-821.78,1033.2,2376.71,765.38,-152.59,35.62,28.94,-9.69
1,34985,5,-249.76,-2230.22,14.04,-2382.81,394.9,-426.03,1.05,44.06,-10.25
2,34998,4,-67.5,-1564.7,-183.84,-1212.16,1179.81,325.32,-2.72,40.25,-6.10
3,35013,0,0.0,,,,,,,,
4,35015,0,0.0,,,,,,,,
5,35016,1,0.0,,,,,,,,
6,35018,0,0.0,,,,,,,,
0,35021,5,634.03,-1210.21,927.37,2789.31,778.81,-794.68,37.37,34.97,-2.91
1,35034,5,-229.49,-1492.07,-33.33,-3002.32,487.67,206.91,1.46,40.69,-21.50
2,35046,5,-118.04,-784.91,112.18,-756.84,410.77,200.2,-0.2,39.48,-10.02
3,35058,0,0.0,,,,,,,,
4,35060,0,0.0,,,,,,,,
5,35061,0,0.0,,,,,,,,
6,35063,0,0.0,,,,,,,,
0,35066,6,113.89,-784.79,354.49,2124.02,848.39,-963.13,35.99,40.12,5.87
1,35083,5,-178.47,429.08,-439.58,-2548.22,733.64,-838.01,4.15,33.69,-32.07
2,35095,5,-23.32,-511.23,823.97,-565.19,191.65,387.57,1.17,38.51,-14.06
3,35107,0,0.0,,,,,,,,
4,35108,0,0.0,,,,,,,,
5,35110,0,0.0,,,,,,,,
6,35112,0,0.0,,,,,,,,
0,35116,4,1265.5,-759.89,789.79,-959.47,711.06,-274.05,33.61,43.84,13.51
1,35128,4,-102.66,-731.32,-631.47,2646.48,315.55,134.28,4.1,30.22,-33.20
2,35140,4,-236.08,56.76,-343.02,291.75,-209.35,-259.4,2.6,37.44,-16.02
3,35155,1,0.0,,,,,,,,
4,35158,0,0.0,,,,,,,,
5,35160,0,0.0,,,,,,,,
6,35161,1,0.0,,,,,,,,
0,35165,4,-19.53,-96.56,381.47,-1434.94,302.73,-351.56,31.14,43.97,9.97
1,35177,4,148.93,-514.89,-296.14,1472.78,579.83,-455.93,6.64,35.30,-29.59
2,35189,4,28.93,-271.97,58.35,936.89,441.28,-187.38,1.64,37.92,-14.53
3,35201,0,0.0,,,,,,,,
4,35203,0,0.0,,,,,,,,
5,35204,1,0.0,,,,,,,,
6,35206,0,0.0,,,,,,,,
0,35210,4,740.23,-694.46,396.61,-1703.49,319.82,777.59,31.01,42.33,6.88
1,35225,5,-12.7,-676.03,-260.74,2484.13,-607.3,-244.14,4.03,38.50,-23.03
2,35237,6,201.05,-400.02,-48.46,1461.18,-57.98,-524.9,0.7,38.93,-10.50
3,35250,0,0.0,,,,,,,,
4,35251,1,0.0,,,,,,,,
5,35253,0,0.0,,,,,,,,
6,35255,0,0.0,,,,,,,,
0,35258,5,159.79,-649.17,442.02,-1890.26,321.04,1453.25,33.86,38.71,1.88
1,35270,5,-370.0,-1054.2,104.98,2249.15,-733.03,-928.96,0.52,41.27,-16.37
2,35282,6,-240.84,-852.05,93.38,1858.52,-292.97,-757.45,-1.49,39.95,-5.62
3,35299,0,0.0,,,,,,,,
4,35300,0,0.0,,,,,,,,
5,35302,0,0.0,,,,,,,,
6,35304,0,0.0,,,,,,,,
0,35307,4,95.34,-1071.29,692.38,-1968.99,321.66,1107.18,37.54,34.12,-1.84
1,35319,4,-249.27,-1359.01,248.9,2299.19,-353.39,-720.83,-2.53,40.94,-9.40
2,35332,4,33.94,-1227.05,90.45,2095.34,-70.8,-815.43,-4.96,39.79,0.78
3,35344,0,0.0,,,,,,,,
4,35345,0,0.0,,,,,,,,
5,35347,0,0.0,,,,,,,,
6,35349,0,0.0,,,,,,,,
0,35352,4,338.62,-1255.98,833.86,-1904.3,177.61,1028.44,42.46,30.37,-7.04
1,35364,3,28.2,-1762.82,568.24,2093.51,-417.48,-466.92,-2.53,40.94,-9.40
2,35380,4,54.08,-1621.22,233.76,2120.97,-79.35,-583.5,-8.15,39.14,7.91
3,35391,0,0.0,,,,,,,,
4,35393,0,0.0,,,,,,,,
5,35394,1,0.0,,,,,,,,
6,35396,0,0.0,,,,,,,,
0,35399,5,529.05,-1531.98,680.3,-1552.12,-154.42,1058.96,46.23,20.18,-13.18
1,35412,5,-189.7,-1726.2,992.8,1743.16,-602.42,-83.01,-4.52,42.43,-5.40
2,35425,4,117.55,-1681.15,417.24,1768.8,-605.47,-588.38,-10.0,38.13,15.67
3,35440,0,0.0,,,,,,,,
4,35442,0,0.0,,,,,,,,
5,35443,0,0.0,,,,,,,,
6,35445,0,0.0,,,,,,,,
0,35448,5,248.54,-1369.87,428.1,-1021.12,-407.71,706.18,43.8,10.95,-15.34
1,35461,5,-200.32,-1379.39,1052.49,1151.73,-339.97,-31.74,-5.38,47.38,1.67
2,35473,5,-48.46,-1450.44,503.3,1128.54,-805.66,-536.5,-10.3,34.75,23.50
3,35485,0,0.0,,,,,,,,
4,35487,0,0.0,,,,,,,,
5,35488,1,0.0,,,,,,,,
6,35490,0,0.0,,,,,,,,
0,35493,6,61.28,-1179.93,280.64,-747.68,113.53,1027.22,42.72,5.26,-13.95
1,35510,5,40.16,-1261.35,1142.58,737.3,-740.97,-429.08,-6.47,46.07,13.07
2,35522,5,-218.02,-1332.28,477.78,601.81,-177.61,-247.19,-10.56,31.69,26.72
3,35534,0,0.0,,,,,,,,
4,35536,0,0.0,,,,,,,,
5,35537,0,0.0,,,,,,,,
6,35539,0,0.0,,,,,,,,
0,35543,5,-297.85,-1066.16,115.84,-40.89,-35.4,357.67,41.39,2.89,-13.11
1,35555,5,-339.36,-1089.48,1035.4,-41.5,121.46,-76.29,-6.34,41.55,18.51
2,35567,4,-73.85,-1175.17,375.61,-273.44,78.12,75.68,-10.56,31.69,26.72
3,35578,0,0.0,,,,,,,,
4,35584,0,0.0,,,,,,,,
5,35586,0,0.0,,,,,,,,
6,35587,1,0.0,,,,,,,,
0,35591,4,268.55,-736.45,111.33,385.13,234.38,-652.47,41.83,4.15,-13.50
1,35603,4,-73.24,-131.23,363.28,-1219.48,537.72,430.3,-5.7,40.32,16.72
2,35615,4,-252.44,-1002.44,-163.7,-707.4,-172.12,111.69,-10.03,31.63,26.65
3,35627,1,0.0,,,,,,,,
4,35629,0,0.0,,,,,,,,
5,35631,0,0.0,,,,,,,,
6,35632,0,0.0,,,,,,,,
0,35636,4,1044.07,-75.56,982.54,689.7,-4.88,-322.27,41.24,8.31,-12.55
1,35648,4,-150.88,-973.51,55.66,-1322.02,-119.02,441.28,-5.55,42.29,14.40
2,35663,5,-92.65,-1130.86,-51.51,-652.47,425.42,97.66,-9.67,33.25,24.83
3,35676,0,0.0,,,,,,,,
4,35678,0,0.0,,,,,,,,
5,35679,0,0.0,,,,,,,,
6,35681,0,0.0,,,,,,,,
0,35684,5,18.07,-1204.59,1173.34,898.44,-242.92,-29.91,41.11,11.11,-12.45
1,35696,5,-244.63,-894.53,188.84,-592.65,153.81,302.73,-4.08,45.67,9.18
2,35708,6,-90.94,-1364.26,105.59,-832.52,97.05,70.8,-10.0,35.14,22.86
3,35721,0,0.0,,,,,,,,
4,35726,0,0.0,,,,,,,,
5,35728,0,0.0,,,,,,,,
6,35729,1,0.0,,,,,,,,
0,35733,4,209.96,-625.12,898.19,478.52,-30.52,0.61,41.98,11.44,-14.11
1,35745,4,-55.54,-960.57,141.11,-230.1,15.87,22.58,-2.93,46.33,7.39
2,35758,4,-27.95,-821.17,-47.24,-612.79,257.57,63.48,-10.82,37.88,19.60
3,35769,0,0.0,,,,,,,,
4,35771,0,0.0,,,,,,,,
5,35772,0,0.0,,,,,,,,
6,35774,0,0.0,,,,,,,,
0,35777,5,344.36,-630.25,738.89,288.09,169.68,38.45,43.51,11.84,-13.18
1,35789,5,-183.47,-974.49,153.69,-108.64,-12.21,-177.0,-3.8,47.40,6.91
2,35806,4,-147.34,-1013.06,-18.07,-445.56,-16.48,-45.78,-12.0,39.62,16.87
3,35818,0,0.0,,,,,,,,
4,35819,0,0.0,,,,,,,,
5,35821,0,0.0,,,,,,,,
6,35823,0,0.0,,,,,,,,
0,35826,4,434.2,-559.08,692.02,181.27,161.13,31.74,44.23,11.32,-13.59
1,35838,5,-230.22,-973.88,160.03,-45.78,10.99,-99.49,-3.59,46.85,5.55
2,35851,4,-316.16,-956.79,-15.99,-344.24,-95.83,-79.96,-12.73,40.64,15.39
3,35862,0,0.0,,,,,,,,
4,35864,0,0.09775199999999999,,,,,,,,
5,35866,0,0.0,,,,,,,,
6,35871,0,0.0,,,,,,,,
0,35875,4,493.77,-590.7,679.81,117.19,-58.59,-40.28,43.76,12.29,-12.29
1,35888,4,-231.81,-951.66,174.32,7.32,60.42,109.25,-4.0,46.78,4.71
2,35899,5,-263.43,-978.64,-40.65,-319.82,-167.85,-51.27,-12.79,40.92,14.28
3,35911,0,0.0,,,,,,,,
4,35913,0,0.29383000000000004,,,,,,,,
5,35914,0,0.0,,,,,,,,
6,35916,0,0.0,,,,,,,,
0,35919,4,351.32,-620.36,734.74,59.81,-284.42,-134.89,43.76,12.29,-12.29
1,35931,5,-177.0,-1024.29,173.83,32.35,121.46,194.7,-2.75,46.62,4.31
2,35947,4,-221.19,-1002.44,6.59,-344.85,-133.67,14.04,-12.07,41.38,14.09
3,35958,1,0.0,,,,,,,,
4,35960,0,0.195695,,,,,,,,
5,35962,0,0.0,,,,,,,,
6,35964,0,0.0,,,,,,,,
0,35968,4,421.88,-611.21,684.33,-49.44,-426.03,-261.84,41.52,14.44,-13.99
1,35980,4,-175.9,-944.09,193.48,62.26,159.3,349.12,-1.56,47.34,4.65
2,35992,4,-257.45,-935.91,71.29,-333.25,-465.7,10.38,-10.64,41.24,13.54
3,36003,0,0.0,,,,,,,,
4,36005,0,0.0,,,,,,,,
5,36007,0,0.0,,,,,,,,
6,36008,0,0.0,,,,,,,,
0,36016,5,207.15,-577.15,761.96,-101.32,-520.63,-286.87,39.2,15.86,-14.49
1,36028,5,-36.87,-1010.5,168.09,72.02,131.23,383.3,-1.05,48.00,4.82
2,36040,5,-81.18,-1071.66,68.73,-277.1,-187.99,77.51,-9.31,41.28,12.51
3,36052,0,0.0,,,,,,,,
4,36054,0,0.0,,,,,,,,
5,36056,0,0.0,,,,,,,,
6,36058,0,0.0,,,,,,,,
0,36061,4,79.22,-585.08,818.48,13.43,-175.78,-92.77,36.19,16.98,-15.36
1,36073,3,-38.21,-1043.82,166.14,54.93,48.83,50.66,-1.05,48.00,4.82
2,36084,4,-168.09,-1034.79,72.75,-242.92,1.22,37.84,-9.24,41.93,11.12
3,36100,0,0.0,,,,,,,,
4,36102,0,0.0,,,,,,,,
5,36103,0,0.0,,,,,,,,
6,36105,0,0.0,,,,,,,,
0,36108,5,259.52,-567.87,762.94,111.08,9.16,-18.31,35.25,17.59,-16.06
1,36120,5,-119.63,-998.29,186.04,-15.26,92.77,43.95,-0.52,48.55,3.58
2,36132,4,-204.22,-962.4,139.4,-274.05,97.66,62.26,-9.34,42.22,10.56
3,36144,1,0.0,,,,,,,,
4,36146,0,0.0,,,,,,,,
5,36148,0,0.0,,,,,,,,
6,36149,0,0.0,,,,,,,,
0,36153,4,212.89,-609.25,744.75,122.68,-49.44,-72.02,34.63,18.54,-16.19
1,36169,4,-56.64,-1000.98,196.41,21.97,15.87,84.84,-0.81,48.16,4.03
2,36180,6,-164.31,-972.66,150.63,-275.88,-21.36,65.92,-8.92,41.59,8.95
3,36193,0,0.0,,,,,,,,
4,36194,0,0.0,,,,,,,,
5,36196,0,0.0,,,,,,,,
6,36198,0,0.0,,,,,,,,
0,36201,4,227.54,-601.32,729.61,95.21,-90.94,-115.36,34.18,19.63,-16.37
1,36213,4,-73.61,-950.2,211.55,-21.97,14.04,148.93,-0.11,48.78,2.72
2,36226,3,-219.97,-981.2,162.23,-328.98,-72.02,49.44,-8.92,41.59,8.95
3,36240,0,0.0,,,,,,,,
4,36242,0,0.0,,,,,,,,
5,36243,0,0.0,,,,,,,,
6,36245,0,0.0,,,,,,,,
0,36248,5,162.72,-598.02,765.26,92.16,-102.54,-139.77,33.74,19.87,-16.93
1,36260,5,-49.56,-1025.15,210.69,-53.1,9.77,169.07,0.45,48.96,1.60
2,36273,4,-104.86,-1016.48,204.71,-351.56,154.42,73.24,-8.18,41.64,8.74
3,36285,0,0.0,,,,,,,,
4,36286,0,0.0,,,,,,,,
5,36288,0,0.0,,,,,,,,
6,36290,0,0.0,,,,,,,,
0,36293,4,187.26,-606.69,784.55,182.5,-28.08,-105.59,32.47,21.53,-17.08
1,36310,4,-48.46,-1129.39,229.74,-150.76,50.66,127.56,1.33,48.88,0.93
2,36322,4,-208.86,-1079.35,216.06,-405.27,29.91,115.97,-8.12,41.98,6.07
3,36333,0,0.0,,,,,,,,
4,36335,0,0.0,,,,,,,,
5,36336,0,0.0,,,,,,,,
6,36338,0,0.0,,,,,,,,
0,36341,5,98.14,-646.97,788.7,366.82,21.97,-112.3,32.63,22.29,-15.93
1,36354,5,25.27,-1123.41,280.52,-277.1,-84.84,62.26,2.03,49.26,0.07
2,36366,4,-175.42,-1116.7,224.12,-476.68,208.74,196.53,-7.56,41.99,4.03
3,36381,1,0.0,,,,,,,,
4,36383,0,0.0,,,,,,,,
5,36385,0,0.0,,,,,,,,
6,36386,1,0.0,,,,,,,,
0,36390,5,190.43,-651.61,818.48,598.75,123.9,-87.89,32.26,23.89,-15.55
1,36403,4,10.38,-1292.36,273.07,-386.96,-84.84,-28.08,2.44,49.93,-0.37
2,36414,5,-110.35,-1270.14,221.31,-607.91,245.36,294.19,-6.23,42.74,2.91
3,36426,0,0.0,,,,,,,,
4,36428,0,0.0,,,,,,,,
5,36429,0,0.0,,,,,,,,
6,36431,0,0.0,,,,,,,,
0,36434,6,141.85,-662.6,886.11,1090.09,133.67,-73.85,32.37,26.09,-15.00
1,36447,5,-66.04,-1564.94,242.43,-831.91,-101.93,-101.93,2.51,49.02,-3.82
2,36463,5,-158.2,-1510.01,86.55,-831.3,355.22,435.18,-4.63,42.37,-0.57
3,36475,0,0.0,,,,,,,,
4,36476,0,0.0,,,,,,,,
5,36478,0,0.0,,,,,,,,
6,36481,0,0.0,,,,,,,,
0,36484,4,199.1,-668.09,942.75,1818.24,297.85,-37.84,32.32,31.13,-11.28
1,36496,4,-153.08,-1974.73,103.39,-1516.72,16.48,-247.19,2.49,47.53,-9.08
2,36508,4,-129.76,-1692.5,-173.83,-1081.54,588.99,515.75,-2.15,42.00,-4.65
3,36520,0,0.0,,,,,,,,
4,36526,0,0.0,,,,,,,,
5,36528,0,0.0,,,,,,,,
6,36529,0,0.0,,,,,,,,
0,36533,4,506.96,-936.89,919.68,2895.51,683.59,-274.66,32.76,37.98,-5.41
1,36545,4,-265.38,-1996.83,91.8,-2845.46,410.16,-121.46,2.58,43.79,-17.79
2,36557,4,-226.2,-1429.69,-142.82,-1224.98,939.94,284.42,1.54,40.63,-9.48
3,36569,0,0.0,,,,,,,,
4,36571,0,0.0,,,,,,,,
5,36573,0,0.0,,,,,,,,
6,36574,0,0.0,,,,,,,,
0,36578,4,547.0,-1532.59,875.12,2757.57,489.5,-1083.98,32.41,43.40,3.15
1,36590,4,-594.24,-775.88,-86.06,-2964.48,540.16,297.24,5.55,36.27,-29.15
2,36605,6,-17.21,-964.48,383.54,-617.07,4.27,361.33,3.42,39.65,-13.06
3,36618,0,0.0,,,,,,,,
4,36620,0,0.0,,,,,,,,
5,36621,0,0.0,,,,,,,,
6,36623,0,0.0,,,,,,,,
0,36626,5,93.02,-1299.32,794.92,1348.27,1097.41,-597.53,28.6,46.58,12.29
1,36638,5,-1046.88,1904.05,2.32,-351.56,1069.95,-959.47,7.3,30.59,-33.23
2,36651,5,-336.55,-123.78,131.23,-412.6,466.92,-146.48,5.25,38.15,-16.28
3,36663,0,0.0,,,,,,,,
4,36668,0,0.0,,,,,,,,
5,36670,0,0.0,,,,,,,,
6,36672,0,0.0,,,,,,,,
0,36675,4,-208.25,-23.68,484.13,-1422.12,-422.36,-840.45,25.61,47.79,9.28
1,36687,4,-351.32,-152.1,-321.9,1007.69,1041.26,146.48,11.3,34.88,-30.37
2,36700,4,-15.14,-131.1,-5.86,611.57,238.65,-70.19,5.58,38.20,-14.97
3,36711,1,0.0,,,,,,,,
4,36713,0,0.0,,,,,,,,
5,36715,0,0.0,,,,,,,,
6,36716,1,0.0,,,,,,,,
0,36720,4,671.63,-459.11,418.21,-1481.32,612.18,49.44,24.28,46.13,5.05
1,36732,4,499.02,-95.21,-354.61,1815.19,-173.34,-415.04,11.3,34.88,-30.37
2,36748,4,339.6,-296.14,17.7,1206.67,383.91,-366.82,5.97,39.47,-11.95
3,36759,0,0.0,,,,,,,,
4,36761,0,0.0,,,,,,,,
5,36762,0,0.0,,,,,,,,
6,36764,0,0.0,,,,,,,,
0,36767,5,173.95,-340.09,406.25,-1884.16,246.58,1421.51,27.25,41.63,-3.05
1,36780,5,-235.96,-999.39,-100.59,2117.92,-820.92,-879.52,10.72,39.22,-25.56
2,36792,5,-82.28,-665.04,33.45,1773.07,-40.28,-769.65,4.24,41.52,-6.70
3,36804,0,0.0,,,,,,,,
4,36806,0,0.0,,,,,,,,
5,36811,0,0.0,,,,,,,,
6,36813,0,0.0,,,,,,,,
0,36816,6,23.19,-957.52,661.87,-1885.99,-31.74,1301.27,31.95,35.00,-8.00
1,36829,4,-450.2,-1216.06,154.17,2357.18,-518.19,-473.02,7.21,43.65,-18.54
2,36841,5,-89.11,-1082.15,94.12,2093.51,-162.96,-865.48,0.68,42.20,1.71
3,36853,0,0.0,,,,,,,,
4,36854,0,0.0,,,,,,,,
5,36856,0,0.0,,,,,,,,
6,36858,0,0.0,,,,,,,,
0,36861,5,146.85,-1146.12,778.93,-2052.61,451.66,872.19,34.66,27.55,-11.66
1,36874,4,123.17,-1611.33,420.41,2258.3,-97.66,-681.76,4.72,45.89,-9.78
2,36890,4,46.63,-1443.24,168.33,2222.9,-277.71,-787.35,-2.43,40.10,10.18
3,36901,1,0.0,,,,,,,,
4,36903,0,0.0,,,,,,,,
5,36905,0,0.0,,,,,,,,
6,36907,1,0.0,,,,,,,,
0,36911,4,347.17,-1577.76,824.83,-1856.69,123.9,1053.47,36.83,19.13,-13.67
1,36923,4,1.95,-1797.49,885.25,2058.11,-561.52,-525.51,2.29,45.85,-0.39
2,36935,3,99.0,-1811.65,392.7,2020.87,-170.9,-605.47,-2.43,40.10,10.18
3,36945,0,0.0,,,,,,,,
4,36947,0,0.0,,,,,,,,
5,36953,1,0.0,,,,,,,,
6,36955,0,0.0,,,,,,,,
0,36959,4,319.7,-1439.33,446.53,-1398.93,83.01,1150.51,37.17,11.13,-15.05
1,36971,4,-516.97,-1692.26,1101.2,1531.98,-619.51,-667.11,1.35,43.92,6.74
2,36983,4,-171.75,-1552.25,398.8,1549.07,-615.84,-715.94,-4.19,36.04,18.07
3,36995,0,0.0,,,,,,,,
4,36997,0,0.0,,,,,,,,
5,36999,0,0.0,,,,,,,,
6,37000,0,0.0,,,,,,,,
0,37004,3,182.25,-1247.68,313.23,-771.48,623.78,1083.37,37.17,11.13,-15.05
1,37015,4,278.2,-1278.69,962.52,753.78,-774.54,-1112.67,0.1,41.04,11.73
2,37030,6,103.76,-1216.31,292.6,897.22,-148.32,-422.97,-4.85,31.87,22.45
3,37043,0,0.0,,,,,,,,
4,37045,0,0.0,,,,,,,,
5,37046,0,0.0,,,,,,,,
6,37048,0,0.0,,,,,,,,
0,37051,5,90.82,-1103.15,166.63,167.85,415.65,1345.21,38.68,6.12,-15.03
1,37063,5,-232.67,-958.37,1023.56,-86.67,-996.09,-852.66,-1.04,38.98,14.56
2,37075,6,-142.58,-1248.05,351.81,322.88,73.85,-157.47,-5.35,30.35,25.72
3,37088,0,0.0,,,,,,,,
4,37090,0,0.0,,,,,,,,
5,37091,0,0.0,,,,,,,,
6,37104,0,0.0,,,,,,,,
0,37108,4,340.09,-1107.42,302.73,371.09,227.05,276.49,39.76,4.00,-11.79
1,37121,4,-193.73,-810.06,652.1,-103.15,-10.99,119.02,-1.05,38.56,14.94
2,37133,4,-103.76,-1205.69,21.36,-546.88,-296.63,81.79,-5.94,29.35,25.56
3,37144,0,0.0,,,,,,,,
4,37146,0,0.0,,,,,,,,
5,37148,0,0.0,,,,,,,,
6,37149,0,0.0,,,,,,,,
0,37153,3,183.72,-423.95,561.77,561.52,10.38,-1022.95,39.76,4.00,-11.79
1,37164,5,-526.0,-1229.13,-358.03,-469.97,787.35,778.81,-0.39,40.06,12.34
2,37180,5,-444.09,-879.76,-811.89,-607.91,-132.45,14.65,-5.65,30.21,26.18
3,37192,0,0.0,,,,,,,,
4,37194,0,0.0,,,,,,,,
5,37195,0,0.0,,,,,,,,
6,37197,0,0.0,,,,,,,,
0,37200,6,907.1,-428.1,595.58,582.28,-344.85,-698.85,39.14,7.10,-13.57
1,37213,5,-117.68,-702.27,309.2,-877.69,291.75,1075.44,1.57,43.03,9.84
2,37225,5,62.13,-1098.75,31.62,-839.23,299.68,70.19,-5.09,32.08,22.36
3,37237,0,0.0,,,,,,,,
4,37238,0,0.0,,,,,,,,
5,37240,0,0.0,,,,,,,,
6,37242,0,0.0,,,,,,,,
0,37250,4,342.16,-596.19,837.04,434.57,-583.5,-358.28,37.44,11.41,-14.00
1,37262,4,-19.78,-982.3,163.7,-338.13,137.33,599.37,3.14,44.67,6.84
2,37274,4,1.83,-1095.34,-125.85,-686.65,-474.85,39.67,-5.19,34.56,21.89
3,37285,0,0.0,,,,,,,,
4,37287,0,0.0,,,,,,,,
5,37289,0,0.0,,,,,,,,
6,37291,0,0.0,,,,,,,,
0,37295,4,159.91,-648.56,856.69,357.06,-239.87,-139.77,37.29,11.91,-15.26
1,37307,4,-101.68,-999.76,105.71,-115.97,66.53,160.52,4.92,45.36,5.29
2,37322,5,-76.78,-1048.95,-141.85,-527.95,145.26,-29.91,-4.87,36.46,19.78
3,37335,0,0.0,,,,,,,,
4,37337,0,0.0,,,,,,,,
5,37338,0,0.0,,,,,,,,
6,37340,0,0.0,,,,,,,,
0,37343,5,302.49,-556.52,771.97,291.14,23.8,-34.79,36.22,12.92,-15.45
1,37355,4,-123.05,-994.26,136.6,-125.12,36.62,-53.1,5.33,46.15,6.08
2,37367,4,-123.41,-934.69,-18.68,-508.42,81.79,-36.01,-5.73,37.88,18.09
3,37379,1,0.0,,,,,,,,
4,37381,0,0.0,,,,,,,,
5,37383,0,0.0,,,,,,,,
6,37384,1,0.0,,,,,,,,
0,37388,4,430.66,-552.37,697.02,219.12,-45.78,-81.79,37.49,13.33,-15.04
1,37404,4,-164.18,-939.82,170.65,-69.58,40.28,75.07,4.79,45.96,2.92
2,37415,6,-209.59,-1020.75,-23.44,-381.47,-59.81,-27.47,-5.98,39.79,15.88
3,37428,0,0.0,,,,,,,,
4,37430,0,0.09775199999999999,,,,,,,,
5,37431,0,0.0,,,,,,,,
6,37433,0,0.0,,,,,,,,
0,37436,5,268.55,-641.48,775.39,134.89,74.46,8.54,37.29,13.62,-15.17
1,37448,5,-97.53,-997.44,165.65,19.53,23.8,-44.56,5.69,46.01,3.34
2,37460,5,-179.57,-1041.75,-14.16,-325.32,123.9,-34.79,-6.18,39.94,15.77
3,37476,0,0.0,,,,,,,,
4,37478,0,0.195695,,,,,,,,
5,37480,0,0.0,,,,,,,,
6,37481,0,0.0,,,,,,,,
0,37485,4,381.35,-546.63,734.99,98.27,169.07,40.28,37.99,14.12,-15.45
1,37497,4,-147.95,-984.13,176.15,19.53,32.35,-67.14,4.77,45.69,4.19
2,37509,5,-255.74,-994.87,29.79,-261.23,130.0,35.4,-6.29,40.38,13.53
3,37521,0,0.0,,,,,,,,
4,37522,1,0.39215700000000003,,,,,,,,
5,37524,0,0.0,,,,,,,,
6,37526,0,0.0,,,,,,,,
0,37529,5,449.83,-537.48,670.17,142.82,184.94,44.56,37.96,14.14,-15.43
1,37545,4,-150.51,-989.14,149.66,7.93,106.2,-42.72,4.77,45.69,4.19
2,37557,4,-169.43,-969.36,76.66,-231.93,172.73,89.11,-6.84,40.84,11.68
3,37568,0,0.0,,,,,,,,
4,37570,0,0.49067700000000003,,,,,,,,
5,37572,0,0.0,,,,,,,,
6,37573,0,0.0,,,,,,,,
0,37577,4,343.75,-583.86,703.13,145.26,191.04,61.04,38.42,14.90,-13.67
1,37590,4,-99.61,-1025.51,162.6,24.41,38.45,-126.34,4.52,45.83,2.72
2,37601,5,-148.93,-1016.48,57.01,-195.92,205.08,72.02,-6.04,41.41,11.47
3,37617,0,0.0,,,,,,,,
4,37618,1,0.49067700000000003,,,,,,,,
5,37620,0,0.0,,,,,,,,
6,37622,0,0.0,,,,,,,,
