id,t,dt,ax,ay,az,gx,gy,gz,mx,my,mz
-1,119,119,119.0,119.0,119.0,119.0,20.0,20.0,20.0,-6:47:32,04 12 2021
0,10053,4,82.15,-630.98,745.36,-14.04,-47.0,-23.19,26.18,21.78,-18.52
1,10073,4,6.71,-989.5,206.05,122.68,9.16,-4.27,8.36,46.90,4.08
2,10084,5,-53.71,-1015.5,49.68,47.0,-12.82,-18.92,-0.11,40.41,15.06
3,10096,0,0.0,,,,,,,,
4,10098,0,0.0,,,,,,,,
5,10099,0,0.0,,,,,,,,
6,10101,0,0.0,,,,,,,,
0,10104,5,129.27,-623.41,755.62,-0.61,22.58,30.52,25.16,21.48,-17.97
1,10117,4,-37.96,-994.02,207.89,96.44,4.88,-43.95,7.91,46.58,3.94
2,10129,4,-135.5,-1009.64,58.59,16.48,-28.08,-23.8,-0.94,40.47,14.82
3,10146,0,0.0,,,,,,,,
4,10147,0,0.0,,,,,,,,
5,10149,0,0.0,,,,,,,,
6,10150,1,0.0,,,,,,,,
0,10155,4,146.0,-628.3,751.34,9.16,11.6,15.26,25.57,21.31,-17.31
1,10167,4,-23.68,-989.38,208.86,100.1,11.6,0.0,8.17,47.22,2.64
2,10178,5,-77.51,-1004.27,72.75,15.26,84.23,-2.44,-0.66,40.50,13.93
3,10190,0,0.0,,,,,,,,
4,10191,0,0.0,,,,,,,,
5,10193,0,0.0,,,,,,,,
6,10195,0,0.0,,,,,,,,
0,10199,3,125.98,-627.56,750.12,19.53,18.92,20.14,25.57,21.31,-17.31
1,10210,4,-3.05,-982.3,206.42,93.99,7.93,-15.26,8.41,46.70,2.95
2,10225,5,-57.74,-990.72,76.54,20.75,44.56,-10.99,-0.67,40.88,14.10
3,10237,0,0.0,,,,,,,,
4,10238,0,0.0,,,,,,,,
5,10241,0,0.0,,,,,,,,
6,10242,1,0.0,,,,,,,,
0,10246,4,135.01,-630.37,746.83,14.65,43.95,43.95,25.67,21.39,-17.49
1,10258,4,-28.69,-970.34,209.11,100.1,0.0,-51.88,7.86,46.55,3.22
2,10269,5,-64.58,-989.75,82.15,34.79,49.44,-4.27,-0.87,41.17,14.78
3,10281,0,0.0,,,,,,,,
4,10283,0,0.0,,,,,,,,
5,10285,0,0.0,,,,,,,,
6,10290,1,0.0,,,,,,,,
0,10294,4,142.94,-629.15,749.27,-0.61,43.95,48.83,25.96,21.22,-19.09
1,10306,4,-32.1,-984.13,204.83,111.69,0.0,-60.42,8.23,46.44,4.17
2,10317,5,-85.33,-998.78,78.86,40.89,16.48,-10.99,-1.2,41.21,15.09
3,10330,0,0.0,,,,,,,,
4,10331,0,0.0,,,,,,,,
5,10333,0,0.0,,,,,,,,
6,10335,0,0.0,,,,,,,,
0,10338,4,167.97,-621.83,757.69,-0.61,42.72,48.83,25.87,21.06,-18.51
1,10350,3,-55.79,-1000.49,201.66,106.2,0.61,-48.83,8.23,46.44,4.17
2,10360,5,-120.12,-1009.4,71.9,50.66,6.1,-6.71,-1.6,41.44,13.79
3,10377,0,0.0,,,,,,,,
4,10378,0,0.0,,,,,,,,
5,10380,0,0.0,,,,,,,,
6,10382,0,0.0,,,,,,,,
0,10385,4,162.23,-621.09,759.03,4.88,32.35,32.35,26.28,20.92,-18.54
1,10397,4,-47.85,-1000.49,201.29,104.37,9.16,-20.14,7.89,46.08,3.33
2,10408,6,-114.99,-1017.46,58.59,55.54,20.14,5.49,-0.96,40.98,14.15
3,10421,0,0.0,,,,,,,,
4,10423,0,0.0,,,,,,,,
5,10424,0,0.0,,,,,,,,
6,10426,0,0.0,,,,,,,,
0,10429,5,172.36,-619.63,757.69,17.09,18.31,12.82,26.23,20.42,-17.70
1,10459,4,-49.44,-989.38,202.88,93.38,18.92,25.63,7.13,46.18,4.09
2,10471,4,-106.45,-1005.98,63.6,53.71,14.65,28.69,-0.79,41.00,14.25
3,10482,0,0.0,,,,,,,,
4,10484,0,0.0,,,,,,,,
5,10485,0,0.0,,,,,,,,
6,10487,0,0.0,,,,,,,,
0,10490,6,172.0,-627.81,755.13,18.92,-9.16,-11.6,26.09,21.04,-18.27
1,10503,4,-53.22,-986.33,202.51,91.55,25.63,50.66,7.54,46.66,4.25
2,10515,4,-94.6,-997.68,66.77,56.15,-30.52,35.4,-0.39,40.99,14.83
3,10530,0,0.0,,,,,,,,
4,10532,0,0.0,,,,,,,,
5,10533,0,0.0,,,,,,,,
6,10535,0,0.0,,,,,,,,
0,10539,5,127.56,-615.11,755.98,15.26,-26.86,-19.53,25.94,20.59,-18.23
1,10551,4,-25.27,-993.16,196.78,100.71,23.19,51.27,7.54,46.66,4.25
2,10562,4,-48.22,-1007.45,52.73,62.87,10.99,28.08,-0.42,41.16,15.01
3,10573,0,0.0,,,,,,,,
4,10575,0,0.0,,,,,,,,
5,10577,0,0.0,,,,,,,,
6,10578,0,0.0,,,,,,,,
0,10583,4,129.27,-619.87,755.62,26.25,6.1,4.88,24.99,21.11,-19.32
1,10594,5,-22.71,-986.69,197.63,93.99,15.26,11.6,7.67,46.61,3.60
2,10610,4,-81.67,-1000.61,45.9,37.84,-14.65,21.36,-0.79,40.82,14.84
3,10621,0,0.0,,,,,,,,
4,10624,0,0.0,,,,,,,,
5,10625,1,0.0,,,,,,,,
6,10627,0,0.0,,,,,,,,
0,10631,4,151.73,-623.54,745.36,23.19,9.16,5.49,25.42,20.91,-17.55
1,10642,5,-21.73,-971.56,202.51,86.67,14.04,16.48,7.97,46.84,4.17
2,10654,4,-66.16,-996.22,51.51,25.63,3.05,29.3,0.48,40.88,14.93
3,10665,0,0.0,,,,,,,,
4,10668,0,0.0,,,,,,,,
5,10669,1,0.0,,,,,,,,
6,10676,0,0.0,,,,,,,,
0,10679,5,143.68,-625.0,757.81,12.21,6.1,5.49,25.5,21.04,-18.46
1,10691,4,-26.61,-984.13,201.17,90.33,14.04,6.1,7.8,46.94,3.30
2,10703,4,-71.29,-1005.98,53.1,22.58,-7.93,25.63,-0.06,41.36,14.58
3,10715,0,0.0,,,,,,,,
4,10717,0,0.0,,,,,,,,
5,10718,0,0.0,,,,,,,,
6,10720,0,0.0,,,,,,,,
0,10723,5,140.63,-624.88,753.42,12.21,11.6,10.99,25.83,21.15,-18.68
1,10735,5,-29.66,-985.47,201.66,96.44,13.43,-7.32,7.76,46.78,3.65
2,10747,3,-67.5,-1001.83,56.52,24.41,-14.04,19.53,-0.06,41.36,14.58
3,10762,0,0.0,,,,,,,,
4,10764,0,0.0,,,,,,,,
5,10765,0,0.0,,,,,,,,
6,10767,0,0.0,,,,,,,,
0,10770,5,141.24,-620.0,759.64,15.26,14.04,11.6,26.2,20.72,-18.74
1,10782,5,-26.98,-982.18,200.44,90.33,12.82,-3.05,8.25,46.77,4.44
2,10795,4,-79.47,-994.63,64.58,29.3,-10.99,15.87,0.33,40.47,14.26
3,10806,0,0.0,,,,,,,,
4,10808,0,0.0,,,,,,,,
5,10809,1,0.0,,,,,,,,
6,10811,0,0.0,,,,,,,,
0,10815,4,144.53,-621.22,755.86,15.87,16.48,10.99,25.59,21.24,-18.32
1,10830,5,-32.59,-989.01,199.34,90.94,13.43,3.05,7.87,46.52,4.76
2,10843,4,-76.9,-1005.37,52.61,37.84,10.38,12.82,0.26,40.28,15.69
3,10854,0,0.0,,,,,,,,
4,10856,0,0.0,,,,,,,,
5,10857,0,0.0,,,,,,,,
6,10859,0,0.0,,,,,,,,
0,10862,5,141.72,-621.58,755.74,18.31,11.6,7.32,25.34,20.81,-18.96
1,10874,6,-26.37,-981.57,200.81,90.94,14.04,9.16,7.46,46.55,4.88
2,10887,4,-66.77,-991.82,59.69,44.56,9.77,9.16,-0.05,40.70,14.92
3,10902,0,0.0,,,,,,,,
4,10904,0,0.0,,,,,,,,
5,10905,0,0.0,,,,,,,,
6,10907,0,0.0,,,,,,,,
0,10910,5,142.82,-626.95,755.62,10.38,6.1,8.54,25.94,21.61,-18.10
1,10923,4,-26.61,-979.61,201.05,103.76,14.65,14.04,8.06,46.51,3.36
2,10935,4,-62.13,-1000.37,56.03,61.04,13.43,-4.27,0.56,40.55,15.28
3,10946,0,0.0,,,,,,,,
4,10948,0,0.0,,,,,,,,
5,10949,0,0.0,,,,,,,,
6,10951,0,0.0,,,,,,,,
0,10954,5,138.18,-622.31,755.37,0.0,4.27,12.21,25.49,20.96,-18.12
1,10967,4,-17.33,-980.83,199.95,110.47,13.43,6.71,8.04,46.83,4.86
2,10982,5,-34.67,-1009.64,46.75,87.28,-0.61,-19.53,0.46,40.41,15.78
3,10994,0,0.0,,,,,,,,
4,10996,0,0.0,,,,,,,,
5,10997,0,0.0,,,,,,,,
6,10999,0,0.0,,,,,,,,
0,11002,6,132.08,-612.79,763.18,6.1,18.92,26.25,25.6,20.53,-18.97
1,11015,4,-27.95,-989.99,194.95,100.71,9.16,-13.43,8.11,46.79,3.81
2,11027,4,-83.74,-1010.25,28.56,74.46,-19.53,-20.14,0.74,40.37,15.34
3,11038,0,0.0,,,,,,,,
4,11040,0,0.0,,,,,,,,
5,11041,0,0.0,,,,,,,,
6,11043,0,0.0,,,,,,,,
0,11051,5,148.8,-614.26,760.38,11.6,21.36,26.86,26.11,20.63,-17.41
1,11063,4,-37.23,-996.09,194.7,100.71,12.21,-15.26,7.67,46.06,4.38
2,11075,4,-85.08,-1011.23,29.66,53.71,12.82,-12.21,-0.01,40.15,15.82
3,11086,0,0.0,,,,,,,,
4,11088,0,0.0,,,,,,,,
5,11089,0,0.0,,,,,,,,
6,11091,0,0.0,,,,,,,,
0,11095,5,138.06,-612.55,758.91,14.65,11.6,15.87,25.96,20.87,-18.53
1,11107,4,-24.41,-990.36,192.14,96.44,13.43,-4.27,7.67,46.06,4.38
2,11118,4,-71.78,-1001.22,26.25,37.23,-15.87,-4.88,0.65,40.03,15.99
3,11133,0,0.0,,,,,,,,
4,11136,0,0.0,,,,,,,,
5,11137,1,0.0,,,,,,,,
6,11139,0,0.0,,,,,,,,
0,11142,5,146.85,-615.36,758.54,15.87,18.31,17.7,25.85,21.13,-19.54
1,11154,5,-33.45,-984.62,195.19,88.5,13.43,-8.54,7.71,46.86,4.00
2,11166,4,-85.82,-997.07,40.16,40.89,-10.38,-9.77,0.6,40.38,16.71
3,11177,0,0.0,,,,,,,,
4,11180,0,0.0,,,,,,,,
5,11182,0,0.0,,,,,,,,
6,11183,0,0.0,,,,,,,,
0,11187,3,138.18,-619.02,763.06,12.21,7.32,9.77,25.85,21.13,-19.54
1,11201,5,-26.86,-986.21,194.7,100.1,14.65,5.49,7.75,46.66,5.09
2,11213,4,-58.11,-998.29,33.94,67.14,7.93,-22.58,0.07,40.10,15.43
3,11225,0,0.0,,,,,,,,
4,11227,0,0.0,,,,,,,,
5,11228,0,0.0,,,,,,,,
6,11230,0,0.0,,,,,,,,
0,11233,5,141.48,-617.43,764.16,9.77,10.38,18.92,25.57,20.80,-19.09
1,11245,5,-29.91,-977.42,196.53,95.21,14.04,-0.61,7.76,46.73,4.19
2,11257,4,-88.99,-986.21,60.42,98.27,-8.54,-36.62,-0.17,39.94,16.25
3,11269,0,0.0,,,,,,,,
4,11275,0,0.0,,,,,,,,
5,11276,0,0.0,,,,,,,,
6,11278,0,0.0,,,,,,,,
0,11281,5,137.21,-613.89,758.67,-4.88,11.6,31.74,26.01,20.68,-18.25
1,11293,5,-16.11,-976.44,192.14,120.85,14.65,-0.61,7.82,47.08,3.89
2,11305,4,-52.98,-1000.49,2.81,121.46,24.41,-55.54,-0.17,39.94,16.25
3,11316,0,0.0,,,,,,,,
4,11318,0,0.0,,,,,,,,
5,11320,0,0.0,,,,,,,,
6,11321,0,0.0,,,,,,,,
0,11325,4,140.01,-603.27,762.94,-11.6,17.7,35.4,25.42,20.68,-18.23
1,11336,5,-17.21,-994.87,186.16,116.58,10.99,-18.92,7.56,47.01,4.28
2,11353,4,-91.55,-1018.92,-6.35,100.71,-43.33,-61.65,0.32,39.81,17.24
3,11365,0,0.0,,,,,,,,
4,11366,0,0.0,,,,,,,,
5,11368,0,0.0,,,,,,,,
6,11369,1,0.0,,,,,,,,
0,11373,4,160.16,-609.01,763.43,0.0,35.4,47.0,25.43,20.26,-18.14
1,11385,4,-41.14,-994.26,183.96,111.08,7.32,-36.62,7.98,46.46,5.51
2,11397,5,-121.95,-1012.57,-14.65,66.53,-43.95,-34.79,-0.18,39.01,16.28
3,11409,0,0.0,,,,,,,,
4,11410,1,0.0,,,,,,,,
5,11412,0,0.0,,,,,,,,
6,11418,0,0.0,,,,,,,,
0,11421,4,157.96,-599.12,768.68,6.1,21.97,25.02,26.09,19.91,-18.35
1,11433,5,-35.89,-1000.49,183.72,92.16,14.65,-7.32,7.52,46.31,4.48
2,11445,5,-117.07,-1023.19,-9.03,31.13,-19.53,-16.48,-0.31,39.51,16.67
3,11457,0,0.0,,,,,,,,
4,11459,0,0.0,,,,,,,,
5,11460,0,0.0,,,,,,,,
6,11462,0,0.0,,,,,,,,
0,11465,5,150.76,-605.71,766.6,21.36,12.82,17.09,26.12,19.64,-18.37
1,11478,4,-34.3,-985.6,186.04,88.5,15.26,5.49,7.87,46.73,4.76
2,11490,4,-116.94,-1000.49,-9.03,17.7,4.27,12.21,0.09,39.43,18.02
3,11505,0,0.0,,,,,,,,
4,11506,1,0.0,,,,,,,,
5,11508,0,0.0,,,,,,,,
6,11510,0,0.0,,,,,,,,
0,11513,5,146.24,-607.3,767.21,18.31,5.49,5.49,26.2,20.06,-19.17
1,11526,4,-28.08,-982.3,186.04,87.28,14.65,14.65,7.47,46.55,4.87
2,11538,4,-91.19,-996.7,9.52,11.6,6.1,15.87,-0.34,38.96,16.24
3,11549,0,0.0,,,,,,,,
4,11550,1,0.0,,,,,,,,
5,11552,0,0.0,,,,,,,,
6,11554,0,0.0,,,,,,,,
0,11557,4,141.11,-606.2,763.92,4.88,3.05,7.93,25.57,19.70,-18.09
1,11574,4,-25.27,-985.11,184.45,93.38,15.87,6.71,8.0,46.75,5.03
2,11585,5,-76.78,-1009.16,-3.3,17.7,-4.88,0.0,0.1,39.42,17.24
3,11596,1,0.0,,,,,,,,
4,11598,0,0.0,,,,,,,,
5,11600,0,0.0,,,,,,,,
6,11601,1,0.0,,,,,,,,
0,11606,4,137.45,-604.13,774.9,13.43,11.6,14.04,25.81,20.08,-19.03
1,11618,3,-23.56,-988.4,186.04,89.72,10.99,-4.27,8.0,46.75,5.03
2,11628,5,-99.37,-1006.47,0.24,29.3,-13.43,-9.16,-0.06,39.17,17.46
3,11640,0,0.0,,,,,,,,
4,11645,0,0.0,,,,,,,,
5,11648,0,0.0,,,,,,,,
6,11649,0,0.0,,,,,,,,
0,11653,4,147.83,-603.27,770.14,23.19,17.09,20.75,25.52,19.51,-19.71
1,11664,5,-60.3,-991.09,182.25,91.55,12.21,-3.66,7.81,46.68,5.02
2,11676,5,-102.17,-1000.98,-4.64,24.41,-3.05,-3.05,0.76,38.85,17.24
3,11687,1,0.0,,,,,,,,
4,11689,0,0.0,,,,,,,,
5,11692,0,0.0,,,,,,,,
6,11693,1,0.0,,,,,,,,
0,11697,4,146.48,-604.74,770.51,25.63,14.04,16.48,25.52,19.59,-18.99
1,11709,4,-30.64,-989.5,185.18,87.28,13.43,-1.83,7.67,46.45,4.99
2,11724,4,-99.61,-1000.49,3.91,20.75,-8.54,2.44,-0.09,38.71,16.16
3,11736,0,0.0,,,,,,,,
4,11738,0,0.0,,,,,,,,
5,11740,0,0.0,,,,,,,,
6,11741,0,0.0,,,,,,,,
0,11745,4,144.29,-603.03,765.5,20.14,14.65,15.87,25.46,19.69,-18.86
1,11757,4,-31.86,-985.35,185.3,89.72,14.04,0.0,8.04,46.30,4.80
2,11768,4,-101.2,-997.56,7.93,17.7,-3.66,6.1,0.24,39.51,17.14
3,11780,0,0.0,,,,,,,,
4,11782,0,0.0,,,,,,,,
5,11784,0,0.0,,,,,,,,
6,11785,0,0.0,,,,,,,,
0,11793,4,141.36,-604.49,766.85,14.04,11.6,14.65,26.17,19.48,-19.46
1,11804,5,-31.37,-989.14,184.45,92.16,13.43,-5.49,7.42,46.44,4.98
2,11816,5,-95.95,-1003.05,5.62,25.63,-3.05,0.61,0.57,39.62,16.58
3,11828,0,0.0,,,,,,,,
4,11830,0,0.0,,,,,,,,
5,11832,0,0.0,,,,,,,,
6,11833,0,0.0,,,,,,,,
0,11837,4,137.57,-604.25,769.65,13.43,12.21,17.09,25.67,19.78,-18.02
1,11848,5,-26.25,-986.45,184.2,93.99,10.38,-9.77,7.5,46.37,4.13
2,11860,4,-93.87,-1000.49,0.24,26.86,0.61,-3.66,0.57,39.62,16.58
3,11875,0,0.0,,,,,,,,
4,11877,0,0.0,,,,,,,,
5,11878,1,0.0,,,,,,,,
6,11880,0,0.0,,,,,,,,
0,11883,5,144.29,-602.91,773.93,17.09,16.48,20.14,26.06,19.84,-17.88
1,11895,5,-30.88,-988.4,184.94,92.16,10.99,-10.38,7.09,46.47,4.46
2,11908,4,-106.2,-1002.44,0.0,28.69,-11.6,-5.49,0.21,39.18,16.97
3,11919,0,0.0,,,,,,,,
4,11921,0,0.0,,,,,,,,
5,11923,0,0.0,,,,,,,,
6,11924,0,0.0,,,,,,,,
0,11928,4,145.51,-603.39,769.41,15.87,12.82,15.26,26.07,19.70,-18.26
1,11943,6,-32.96,-990.48,183.23,95.83,12.21,-2.44,7.19,46.75,4.38
2,11956,4,-89.72,-1005.49,0.49,25.63,5.49,2.44,0.13,39.55,17.24
3,11967,0,0.0,,,,,,,,
4,11969,0,0.0,,,,,,,,
5,11970,1,0.0,,,,,,,,
6,11972,0,0.0,,,,,,,,
0,11975,5,138.92,-599.98,770.14,18.31,14.04,15.87,25.95,19.70,-17.61
1,11987,6,-32.1,-987.18,180.54,93.38,10.99,-6.1,8.02,46.79,4.69
2,12000,4,-94.97,-1000.0,10.62,29.91,5.49,2.44,0.38,39.10,17.02
3,12011,0,0.0,,,,,,,,
4,12017,0,0.0,,,,,,,,
5,12018,0,0.0,,,,,,,,
6,12020,0,0.0,,,,,,,,
0,12023,4,134.52,-605.59,773.93,18.92,39.06,37.84,25.95,19.70,-17.61
1,12035,4,-28.2,-986.57,181.88,89.72,4.88,-37.23,7.36,46.18,3.98
2,12047,4,-88.38,-1001.1,-4.27,21.97,37.23,11.6,0.29,38.98,17.49
3,12058,0,0.0,,,,,,,,
4,12060,0,0.0,,,,,,,,
5,12061,0,0.0,,,,,,,,
6,12063,0,0.0,,,,,,,,
0,12066,5,140.26,-600.34,766.72,15.26,50.05,42.11,25.61,19.69,-18.63
1,12079,4,-36.25,-990.36,183.11,86.67,2.44,-51.27,7.63,46.22,5.53
2,12095,4,-119.63,-1005.74,0.61,-5.49,37.84,24.41,-0.12,39.56,17.19
3,12106,0,0.0,,,,,,,,
4,12108,0,0.0,,,,,,,,
5,12109,0,0.0,,,,,,,,
6,12111,0,0.0,,,,,,,,
0,12114,6,150.51,-609.99,764.53,10.38,52.49,34.79,26.33,19.25,-18.52
1,12127,5,-34.3,-973.63,187.13,89.72,1.83,-42.11,7.12,45.86,5.09
2,12139,4,-80.93,-1000.61,0.24,-5.49,93.99,62.87,-0.15,39.93,17.55
3,12150,0,0.0,,,,,,,,
4,12152,0,0.0,,,,,,,,
5,12153,1,0.0,,,,,,,,
6,12155,0,0.0,,,,,,,,
0,12158,6,144.41,-615.23,775.51,-31.13,53.71,47.61,26.11,19.78,-18.40
1,12175,3,-34.18,-985.47,185.79,98.27,-7.32,-64.09,7.12,45.86,5.09
2,12186,4,-91.8,-1054.32,-118.77,-88.5,15.26,92.77,0.11,39.90,16.66
3,12197,0,0.0,,,,,,,,
4,12199,0,0.0,,,,,,,,
5,12201,0,0.0,,,,,,,,
6,12203,0,0.0,,,,,,,,
0,12207,4,182.98,-597.41,775.02,-11.6,15.26,3.05,26.83,19.43,-18.44
1,12218,5,-36.99,-970.09,192.14,66.53,6.1,0.0,7.14,46.66,4.99
2,12230,4,-97.78,-1007.69,26.25,-136.11,29.3,141.6,0.4,40.27,16.26
3,12246,0,0.0,,,,,,,,
4,12248,0,0.0,,,,,,,,
5,12249,0,0.0,,,,,,,,
6,12251,0,0.0,,,,,,,,
0,12254,5,157.71,-599.85,781.62,-6.71,12.21,-1.83,26.46,18.90,-17.94
1,12266,5,-52.86,-990.36,187.5,87.28,4.27,-12.82,6.87,46.41,5.63
2,12278,4,-70.19,-1019.29,29.79,-158.69,28.69,156.25,1.2,40.77,14.39
3,12290,0,0.0,,,,,,,,
4,12292,0,0.0,,,,,,,,
5,12294,0,0.0,,,,,,,,
6,12295,0,0.0,,,,,,,,
0,12299,4,221.44,-526.0,797.49,-3.05,0.61,-15.26,26.61,19.23,-17.72
1,12314,5,-45.17,-956.42,197.39,5.49,21.97,45.78,7.53,46.40,5.11
2,12326,5,-52.73,-1033.2,77.88,-233.15,6.71,189.21,1.46,41.19,14.10
3,12338,0,0.0,,,,,,,,
4,12340,0,0.0,,,,,,,,
5,12342,0,0.0,,,,,,,,
6,12343,0,0.0,,,,,,,,
0,12347,4,159.42,-587.4,795.29,45.78,-25.63,-44.56,26.22,19.45,-18.71
1,12358,5,-53.83,-1006.59,191.65,64.09,20.14,45.78,6.69,46.48,4.80
2,12370,6,-45.29,-1046.88,77.39,-209.96,16.48,192.26,2.31,42.15,14.10
3,12383,0,0.0,,,,,,,,
4,12388,0,0.0,,,,,,,,
5,12390,0,0.0,,,,,,,,
6,12391,1,0.0,,,,,,,,
0,12395,4,186.16,-564.21,829.71,124.51,18.92,-87.89,25.94,19.45,-18.27
1,12407,4,-108.64,-1134.16,175.29,35.4,34.18,144.65,7.43,46.47,5.02
2,12419,4,-140.14,-1192.5,6.35,-294.19,-12.82,198.36,2.31,42.15,14.10
3,12430,0,0.0,,,,,,,,
4,12432,0,0.0,,,,,,,,
5,12433,0,0.0,,,,,,,,
6,12435,0,0.0,,,,,,,,
0,12438,5,274.54,-602.29,835.21,704.35,-41.5,-106.81,25.23,20.84,-18.49
1,12450,5,-182.62,-1342.16,190.92,-170.9,128.17,477.91,8.41,46.20,4.19
2,12467,4,-107.06,-1271.85,-52.98,-508.42,250.85,238.04,2.99,41.92,12.08
3,12479,0,0.0,,,,,,,,
4,12480,0,0.0,,,,,,,,
5,12482,0,0.0,,,,,,,,
6,12484,0,0.0,,,,,,,,
0,12487,4,330.69,-650.63,915.77,775.15,49.44,-368.04,24.79,23.79,-17.91
1,12499,5,-350.59,-1406.62,230.71,-664.06,347.9,335.08,9.27,47.68,1.53
2,12512,4,-223.02,-1264.53,53.47,-642.09,264.28,194.09,4.41,42.75,10.19
3,12523,0,0.0,,,,,,,,
4,12525,0,0.0,,,,,,,,
5,12530,0,0.0,,,,,,,,
6,12532,0,0.0,,,,,,,,
0,12535,5,347.78,-745.24,821.17,892.33,410.77,-708.01,25.0,26.73,-16.31
1,12548,5,-224.0,-893.68,-25.02,-875.85,685.42,115.97,10.34,47.86,-2.09
2,12560,5,-86.79,-879.64,-77.27,-540.77,476.68,76.9,4.61,43.64,8.12
3,12572,0,0.0,,,,,,,,
4,12573,0,0.0,,,,,,,,
5,12575,0,0.0,,,,,,,,
6,12577,0,0.0,,,,,,,,
0,12580,4,224.37,-170.78,1224.0,395.51,431.52,-739.14,25.11,29.94,-15.06
1,12593,4,-210.45,-635.38,-871.7,-69.58,935.06,11.6,9.81,47.41,-2.94
2,12609,4,-79.35,-516.85,-548.71,111.08,698.24,-90.94,4.21,43.52,4.82
3,12620,0,0.0,,,,,,,,
4,12622,0,0.0,,,,,,,,
5,12624,0,0.0,,,,,,,,
6,12625,0,0.0,,,,,,,,
0,12630,4,464.97,3.05,1063.11,-384.52,480.35,-364.99,26.28,30.09,-16.09
1,12642,4,106.2,-690.19,-736.69,502.32,500.49,-208.13,9.67,47.55,-2.98
2,12653,5,250.12,-671.75,-499.88,634.77,366.21,-306.4,3.77,43.33,5.64
3,12665,0,0.0,,,,,,,,
4,12667,0,0.0,,,,,,,,
5,12668,0,0.0,,,,,,,,
6,12670,0,0.0,,,,,,,,
0,12678,5,378.66,-76.29,998.9,-607.3,209.96,349.12,27.19,28.93,-15.60
1,12690,4,99.98,-1002.2,-439.58,807.5,-29.3,-274.66,8.81,46.84,-1.10
2,12702,4,126.59,-861.45,-350.95,1063.23,-134.89,-455.93,2.8,42.41,7.28
3,12715,0,0.0,,,,,,,,
4,12716,0,0.0,,,,,,,,
5,12718,0,0.0,,,,,,,,
6,12720,0,0.0,,,,,,,,
0,12723,4,250.98,-482.79,1018.43,-769.04,-4.27,656.13,27.7,25.74,-16.70
1,12735,4,164.31,-1111.94,-159.18,1002.2,-300.9,-292.36,7.45,47.16,2.56
2,12751,4,86.67,-1064.82,-205.69,1392.82,-552.98,-451.05,1.35,41.13,12.65
3,12763,0,0.0,,,,,,,,
4,12765,0,0.0,,,,,,,,
5,12767,0,0.0,,,,,,,,
6,12768,0,0.0,,,,,,,,
0,12772,4,95.58,-703.0,979.86,-776.37,-300.9,881.35,26.99,21.87,-17.29
1,12784,3,160.03,-1432.01,135.25,1035.16,-576.17,-173.34,7.45,47.16,2.56
2,12795,5,34.18,-1238.53,-138.18,1501.46,-614.62,-308.23,0.18,37.52,18.54
3,12807,0,0.0,,,,,,,,
4,12809,0,0.0,,,,,,,,
5,12810,1,0.0,,,,,,,,
6,12812,0,0.0,,,,,,,,
0,12819,5,114.38,-901.12,783.57,-619.51,-167.24,783.08,27.22,18.07,-17.94
1,12831,5,-73.73,-1310.79,550.17,661.62,-560.3,-229.49,7.75,46.56,7.19
2,12844,5,-226.2,-1386.47,135.01,1355.59,-603.64,-244.14,2.11,33.75,23.49
3,12856,0,0.0,,,,,,,,
4,12857,1,0.0,,,,,,,,
5,12859,0,0.0,,,,,,,,
6,12861,0,0.0,,,,,,,,
0,12864,5,212.77,-1195.56,573.73,-464.48,-236.21,718.99,25.95,15.69,-18.73
1,12876,5,-65.55,-973.27,690.06,767.21,-531.01,-64.09,7.45,44.90,9.66
2,12889,4,-142.94,-1244.63,163.7,931.4,-541.38,-278.32,3.1,30.63,27.70
3,12904,1,0.0,,,,,,,,
4,12906,0,0.0,,,,,,,,
5,12908,0,0.0,,,,,,,,
6,12909,1,0.0,,,,,,,,
0,12913,4,-1.95,-896.73,355.22,-470.58,-53.1,556.64,25.45,13.42,-17.98
1,12925,5,25.27,-996.7,738.77,557.25,-349.12,-191.65,8.11,44.01,13.35
2,12938,4,-245.73,-1124.88,216.43,418.09,-300.9,-205.08,3.83,28.50,28.59
3,12949,0,0.0,,,,,,,,
4,12951,0,0.0,,,,,,,,
5,12952,1,0.0,,,,,,,,
6,12954,0,0.0,,,,,,,,
0,12958,3,-88.13,-1000.0,196.17,-126.34,71.41,264.89,25.45,13.42,-17.98
1,12973,5,36.62,-772.46,954.96,125.12,20.14,-62.26,8.14,42.82,14.16
2,12985,4,-131.35,-1186.52,406.74,-302.12,-25.02,-30.52,3.58,28.23,29.37
3,12997,0,0.0,,,,,,,,
4,12998,0,0.0,,,,,,,,
5,13000,0,0.0,,,,,,,,
6,13002,0,0.0,,,,,,,,
0,13005,4,-58.96,-991.21,159.42,18.92,106.81,-297.24,25.65,12.00,-16.92
1,13018,4,75.93,-1122.19,879.64,-29.91,283.2,69.58,6.98,42.41,13.72
2,13030,4,-107.91,-1165.89,64.58,-730.59,-58.59,28.69,3.69,30.30,26.87
3,13045,0,0.0,,,,,,,,
4,13047,0,0.0,,,,,,,,
5,13048,0,0.0,,,,,,,,
6,13050,0,0.0,,,,,,,,
0,13053,6,231.69,-439.33,1397.95,918.58,-118.41,-67.75,26.67,12.05,-16.88
1,13066,5,-149.41,-1532.71,-294.31,-1068.12,-336.3,18.31,7.54,43.41,14.15
2,13078,4,-109.25,-1137.21,-687.62,-519.41,-403.44,-21.36,3.69,30.30,26.87
3,13089,0,0.0,,,,,,,,
4,13091,0,0.0,,,,,,,,
5,13092,0,0.0,,,,,,,,
6,13094,0,0.0,,,,,,,,
0,13097,6,-181.76,-1999.51,1402.22,1277.47,-431.52,-292.97,26.29,15.45,-18.60
1,13114,5,64.33,-687.87,432.5,-919.8,390.01,341.8,9.51,44.71,7.84
2,13126,4,157.71,-1694.82,714.72,-1149.29,-531.01,-28.08,4.26,33.08,25.99
3,13138,0,0.0,,,,,,,,
4,13139,0,0.0,,,,,,,,
5,13142,0,0.0,,,,,,,,
6,13144,0,0.0,,,,,,,,
0,13147,4,105.35,-397.58,899.41,-92.77,-181.88,-213.01,26.05,17.69,-17.02
1,13159,4,-31.98,-1344.24,135.01,147.09,200.2,-30.52,10.29,46.40,6.26
2,13171,4,-404.42,-697.14,16.36,-780.64,-941.16,-157.47,5.74,34.47,21.33
3,13187,0,0.0,,,,,,,,
4,13189,0,0.0,,,,,,,,
5,13190,1,0.0,,,,,,,,
6,13192,0,0.0,,,,,,,,
0,13196,4,80.08,-589.97,817.38,-4.27,-209.96,-73.85,25.02,18.09,-17.72
1,13207,5,-56.4,-959.59,192.5,-20.75,35.4,155.64,10.08,46.00,4.99
2,13219,4,104.61,-968.99,-14.89,-557.86,355.22,-101.93,7.45,36.39,19.30
3,13232,0,0.0,,,,,,,,
4,13233,0,0.0,,,,,,,,
5,13235,0,0.0,,,,,,,,
6,13237,0,0.0,,,,,,,,
0,13240,4,5.25,-547.0,834.47,69.58,-125.12,-4.27,22.83,19.21,-18.04
1,13256,4,84.11,-1026.0,180.42,-10.99,97.66,-17.7,9.97,46.26,4.80
2,13267,6,-83.25,-1012.45,13.43,-438.84,55.54,-161.74,6.16,37.32,17.25
3,13280,0,0.0,,,,,,,,
4,13281,1,0.0,,,,,,,,
5,13283,0,0.0,,,,,,,,
6,13285,0,0.0,,,,,,,,
0,13288,5,33.94,-562.74,816.16,150.76,76.9,31.74,21.62,21.00,-18.52
1,13300,4,5.25,-1039.18,184.94,-15.87,12.82,-78.74,10.28,46.59,3.55
2,13313,4,-222.17,-969.6,66.89,-404.05,194.09,-109.25,5.26,38.46,15.87
3,13324,0,0.0,,,,,,,,
4,13330,0,0.0,,,,,,,,
5,13331,0,0.0,,,,,,,,
6,13333,0,0.0,,,,,,,,
0,13336,5,105.83,-623.17,782.96,115.36,-1.83,-72.63,21.12,21.97,-18.07
1,13348,5,37.23,-977.05,201.9,-14.04,-36.62,74.46,10.14,46.46,4.58
2,13361,4,-131.1,-1003.42,77.88,-360.11,58.59,-39.06,4.92,39.12,14.04
3,13372,1,0.0,,,,,,,,
4,13374,0,0.0,,,,,,,,
5,13376,0,0.0,,,,,,,,
6,13377,0,0.0,,,,,,,,
0,13381,4,55.18,-605.59,796.26,108.03,-10.99,-100.1,21.04,21.34,-18.85
1,13393,5,6.35,-1024.78,207.28,-26.25,61.65,117.19,10.66,46.53,3.94
2,13409,4,-146.97,-1000.37,157.71,-330.81,130.62,-36.01,4.17,39.60,12.27
3,13421,0,0.0,,,,,,,,
4,13422,0,0.0,,,,,,,,
5,13424,0,0.0,,,,,,,,
6,13426,0,0.0,,,,,,,,
0,13429,4,-115.23,-581.18,789.55,151.37,81.79,-30.52,21.42,22.51,-18.26
1,13442,3,144.9,-1037.72,203.13,71.41,-142.82,13.43,10.66,46.53,3.94
2,13453,4,56.03,-965.09,124.63,-300.29,463.87,-31.13,2.86,40.55,11.21
3,13464,0,0.0,,,,,,,,
4,13466,0,0.0,,,,,,,,
5,13471,0,0.0,,,,,,,,
6,13473,0,0.0,,,,,,,,
0,13476,5,74.95,-642.46,748.05,115.36,65.31,-29.91,21.5,22.41,-18.69
1,13489,4,-24.66,-923.22,239.5,0.0,40.89,59.81,10.66,46.91,2.39
2,13501,4,-181.52,-942.02,223.14,-271.61,86.67,-33.57,2.26,41.08,9.38
3,13512,0,0.0,,,,,,,,
4,13514,0,0.0,,,,,,,,
5,13515,1,0.0,,,,,,,,
6,13517,0,0.0,,,,,,,,
0,13521,5,77.27,-630.49,742.31,76.29,-30.52,-64.7,21.97,23.13,-17.13
1,13533,5,61.65,-933.96,240.72,-4.27,-20.14,134.28,10.62,47.08,1.78
2,13549,4,-45.9,-967.41,229.13,-242.92,75.68,-32.96,2.4,41.20,7.89
3,13560,0,0.0,,,,,,,,
4,13562,0,0.0,,,,,,,,
5,13564,0,0.0,,,,,,,,
6,13565,0,0.0,,,,,,,,
0,13570,4,10.74,-640.99,766.72,150.76,-103.15,-10.99,20.57,23.77,-18.20
1,13582,4,83.13,-1006.23,234.99,33.57,12.82,84.23,11.35,47.25,3.09
2,13593,5,-121.7,-1004.64,228.39,-272.83,-7.93,-43.33,3.16,41.22,8.03
3,13605,0,0.0,,,,,,,,
4,13606,1,0.0,,,,,,,,
5,13608,0,0.0,,,,,,,,
6,13611,0,0.195695,,,,,,,,
0,13614,5,52.12,-632.2,777.47,155.03,-23.8,-20.14,20.59,23.99,-17.57
1,13630,4,38.09,-1099.85,246.22,2.44,25.02,87.28,11.76,46.75,1.60
2,13642,4,-157.84,-1084.23,227.29,-332.03,99.49,-19.53,2.53,41.53,5.91
3,13654,0,0.0,,,,,,,,
4,13656,0,0.0,,,,,,,,
5,13657,1,0.0,,,,,,,,
6,13659,0,0.29383000000000004,,,,,,,,
0,13663,4,55.42,-632.08,811.16,299.68,0.0,-43.33,20.91,24.69,-17.41
1,13674,5,64.33,-1197.75,279.91,-168.46,-14.04,57.98,12.39,47.05,1.89
2,13686,5,-224.37,-1157.59,234.86,-466.92,214.84,72.63,2.92,42.03,4.22
3,13703,0,0.0,,,,,,,,
4,13704,0,0.0,,,,,,,,
5,13706,0,0.0,,,,,,,,
6,13707,1,0.39215700000000003,,,,,,,,
0,13711,4,64.58,-633.91,836.55,632.32,-101.32,-14.04,20.37,26.73,-15.99
1,13723,4,4.88,-1359.25,280.52,-358.28,-17.09,95.21,12.94,46.95,0.71
2,13735,4,-248.66,-1297.24,238.4,-635.38,375.98,164.79,2.92,42.03,4.22
3,13746,0,0.0,,,,,,,,
4,13748,0,0.0,,,,,,,,
5,13750,0,0.0,,,,,,,,
6,13751,0,0.29383000000000004,,,,,,,,
0,13755,4,13.79,-694.95,906.62,1198.12,-62.87,-42.11,19.59,30.18,-15.15
1,13770,5,-7.81,-1707.89,244.51,-908.2,50.66,-16.48,13.02,46.90,-1.00
2,13783,5,-187.5,-1669.56,96.44,-881.96,747.07,242.31,3.37,41.86,1.59
3,13795,0,0.0,,,,,,,,
4,13796,1,0.0,,,,,,,,
5,13798,0,0.0,,,,,,,,
6,13800,0,0.0,,,,,,,,
0,13803,5,22.46,-692.26,1103.64,2056.88,413.21,-27.47,20.58,35.24,-10.74
1,13815,5,-102.29,-2255.13,19.9,-1872.56,227.05,-255.13,13.85,46.55,-7.21
2,13828,5,-91.19,-1766.24,-194.58,-1155.4,938.11,296.02,3.48,42.16,-2.72
3,13844,0,0.0,,,,,,,,
4,13845,0,0.0,,,,,,,,
5,13847,0,0.0,,,,,,,,
6,13849,0,0.0,,,,,,,,
0,13852,4,511.6,-1412.6,1085.94,2732.54,710.45,-491.94,22.02,42.63,-3.41
1,13864,5,78.86,-1591.43,71.41,-2745.36,310.06,463.26,12.82,44.52,-17.47
2,13877,4,28.56,-992.55,105.47,-1136.47,493.16,145.87,4.7,41.72,-7.64
3,13888,1,0.0,,,,,,,,
4,13890,0,0.0,,,,,,,,
5,13892,0,0.0,,,,,,,,
6,13893,0,0.0,,,,,,,,
0,13897,4,127.56,-1042.6,673.71,2114.26,144.65,-932.01,20.08,46.69,4.48
1,13913,5,-395.14,-10.86,-453.0,-2244.87,585.33,259.4,15.83,38.95,-26.65
2,13925,5,-196.78,-546.14,514.89,-616.46,289.92,205.69,6.42,40.32,-12.85
3,13937,0,0.0,,,,,,,,
4,13939,0,0.0,,,,,,,,
5,13940,0,0.0,,,,,,,,
6,13942,0,0.0,,,,,,,,
0,13945,5,951.66,-453.98,821.04,-285.03,1367.19,-665.89,18.37,49.29,7.41
1,13958,5,406.98,-646.61,-529.66,828.25,622.56,-386.35,16.63,36.83,-29.19
2,13970,5,97.9,-229.74,-318.6,169.07,549.93,-44.56,7.32,38.34,-15.11
3,13986,0,0.0,,,,,,,,
4,13987,0,0.0,,,,,,,,
5,13989,0,0.0,,,,,,,,
6,13991,0,0.0,,,,,,,,
0,13995,4,133.42,-112.67,621.58,-798.95,449.22,-244.14,15.16,49.39,5.07
1,14007,4,158.08,-155.15,-371.46,878.3,497.44,-442.5,17.5,38.23,-27.60
2,14019,4,101.56,-231.08,-32.96,924.07,549.93,-226.44,8.89,38.83,-14.87
3,14030,0,0.0,,,,,,,,
4,14032,0,0.0,,,,,,,,
5,14034,0,0.0,,,,,,,,
6,14035,0,0.0,,,,,,,,
0,14040,3,258.91,-474.12,558.47,-1394.04,94.6,440.67,15.16,49.39,5.07
1,14051,3,-98.27,-502.69,-194.58,1687.01,-79.96,-352.17,17.5,38.23,-27.60
2,14065,5,10.13,-564.45,-17.82,1391.6,-43.95,-534.67,7.95,40.88,-11.16
3,14077,0,0.0,,,,,,,,
4,14078,2,0.0,,,,,,,,
5,14081,0,0.0,,,,,,,,
6,14083,0,0.0,,,,,,,,
0,14086,5,55.91,-713.62,646.85,-1650.39,369.87,881.96,17.04,49.41,0.24
1,14098,4,-330.57,-855.83,-0.73,2042.24,-112.3,-878.91,16.85,41.75,-23.78
2,14110,4,-72.88,-796.63,47.0,1745.0,23.8,-756.23,5.81,42.98,-6.80
3,14121,2,0.0,,,,,,,,
4,14128,0,0.0,,,,,,,,
5,14130,0,0.0,,,,,,,,
6,14131,0,0.0,,,,,,,,
0,14135,4,65.67,-908.45,776.49,-2004.39,779.42,819.09,22.14,46.39,-9.07
1,14147,4,176.88,-1430.66,158.45,2159.42,37.23,-1022.95,13.02,45.87,-18.98
2,14159,4,96.31,-1203.86,24.9,2044.07,-75.68,-886.23,1.66,44.31,1.00
3,14171,0,0.0,,,,,,,,
4,14173,0,0.0,,,,,,,,
5,14174,0,0.0,,,,,,,,
6,14176,0,0.0,,,,,,,,
0,14179,5,100.46,-1077.51,928.47,-1875.61,652.47,958.25,28.5,34.88,-14.04
1,14191,5,315.43,-1700.07,325.93,2041.02,-269.78,-951.54,6.43,51.60,-10.58
2,14208,5,33.57,-1579.47,188.48,2140.5,-18.31,-696.41,-3.34,40.95,10.66
3,14220,0,0.0,,,,,,,,
4,14221,1,0.0,,,,,,,,
5,14223,0,0.0,,,,,,,,
6,14225,0,0.0,,,,,,,,
0,14228,4,144.9,-1485.72,878.3,-1788.94,233.15,1088.87,31.87,25.70,-13.20
1,14240,5,96.19,-1823.73,747.56,1994.02,-411.99,-678.1,0.48,49.28,3.08
2,14253,4,137.21,-1654.79,243.04,1923.22,-567.63,-713.5,-5.57,36.29,17.75
3,14265,0,0.0,,,,,,,,
4,14266,0,0.0,,,,,,,,
5,14272,0,0.0,,,,,,,,
6,14273,1,0.0,,,,,,,,
0,14277,4,188.84,-1352.05,535.64,-1242.07,32.35,972.9,33.14,18.65,-14.25
1,14289,5,135.38,-1539.18,945.43,1291.5,-578.61,-518.8,-0.42,42.18,7.54
2,14302,4,-113.16,-1496.7,372.07,1374.51,-949.71,-612.79,-5.19,31.07,23.93
3,14313,1,0.0,,,,,,,,
4,14315,0,0.0,,,,,,,,
5,14317,0,0.0,,,,,,,,
6,14318,1,0.0,,,,,,,,
0,14322,4,194.09,-1429.08,352.05,-661.62,24.41,1203.61,33.47,12.65,-13.96
1,14334,5,579.83,-1022.83,958.62,935.06,-947.88,-430.91,-0.35,38.95,10.64
2,14351,4,237.3,-1296.88,509.77,739.14,-714.11,-335.69,-3.99,27.93,25.88
3,14362,0,0.0,,,,,,,,
4,14364,0,0.0,,,,,,,,
5,14366,0,0.0,,,,,,,,
6,14367,0,0.0,,,,,,,,
0,14371,4,-510.74,-1196.17,-29.3,-102.54,-435.79,937.5,33.25,9.05,-13.35
1,14384,4,-82.4,-1186.28,1299.32,225.22,-796.51,-39.06,1.43,38.26,13.75
2,14396,4,-171.14,-1246.34,473.88,-172.12,-623.78,-34.79,-2.73,27.27,26.01
3,14407,0,0.0,,,,,,,,
4,14409,0,0.0,,,,,,,,
5,14414,1,0.0,,,,,,,,
6,14416,0,0.0,,,,,,,,
0,14419,6,-89.36,-1059.33,312.01,505.98,-292.36,32.96,32.39,7.42,-14.18
1,14432,5,-216.92,-1429.44,763.92,-446.78,-128.78,473.02,2.49,38.51,13.21
2,14444,4,-163.33,-1089.23,144.53,-676.88,-442.5,156.25,-2.73,27.27,26.01
3,14455,0,0.0,,,,,,,,
4,14457,0,0.0,,,,,,,,
5,14458,0,0.0,,,,,,,,
6,14460,0,0.0,,,,,,,,
0,14464,5,551.88,-641.48,699.83,993.04,-76.9,-797.12,31.76,8.86,-14.98
1,14476,5,-283.94,-1435.18,-618.9,-665.89,499.88,404.66,2.62,39.56,9.57
2,14492,4,-259.64,-1093.02,-722.9,-414.43,-204.47,62.87,-0.65,29.28,25.40
3,14504,0,0.0,,,,,,,,
4,14505,0,0.0,,,,,,,,
5,14508,0,0.0,,,,,,,,
6,14510,0,0.0,,,,,,,,
0,14513,4,725.1,-879.15,674.32,1160.28,-417.48,-485.84,30.94,14.15,-15.16
1,14525,4,-17.82,-887.57,148.07,-1124.88,-65.31,629.27,4.25,41.82,5.53
2,14537,4,115.72,-1162.72,-120.0,-784.91,-117.19,76.9,-0.61,30.62,24.00
3,14548,2,0.0,,,,,,,,
4,14551,0,0.0,,,,,,,,
5,14556,1,0.0,,,,,,,,
6,14558,0,0.0,,,,,,,,
0,14561,5,5.0,-1243.65,940.92,366.82,-248.41,-469.97,31.05,17.00,-15.19
1,14573,5,83.62,-763.55,277.83,-366.82,75.07,123.29,5.91,43.46,2.10
2,14585,5,226.93,-919.8,-120.36,-928.34,-215.45,-89.11,0.76,32.29,20.58
3,14598,0,0.0,,,,,,,,
4,14599,0,0.0,,,,,,,,
5,14601,0,0.0,,,,,,,,
6,14603,0,0.0,,,,,,,,
0,14606,4,9.52,-664.31,806.52,147.71,10.38,-28.08,29.87,17.80,-15.54
1,14618,4,30.15,-886.23,157.35,-195.31,29.91,-131.23,5.15,43.70,1.10
2,14633,6,-232.18,-927.37,-69.34,-575.56,-171.51,-166.63,1.04,34.39,18.81
3,14646,0,0.0,,,,,,,,
4,14648,0,0.0,,,,,,,,
5,14649,0,0.0,,,,,,,,
6,14651,0,0.0,,,,,,,,
0,14654,5,224.61,-598.51,787.84,83.01,-25.02,26.86,29.54,18.29,-15.16
1,14666,5,-62.13,-1024.54,164.06,50.66,18.31,9.16,5.21,43.88,1.18
2,14679,4,-169.8,-986.94,-41.14,-445.56,-61.65,-76.9,0.95,36.28,16.05
3,14690,0,0.0,,,,,,,,
4,14692,0,0.0,,,,,,,,
5,14694,0,0.0,,,,,,,,
6,14695,0,0.0,,,,,,,,
0,14703,4,96.68,-592.65,823.49,51.27,-101.32,-20.75,28.56,19.51,-15.42
1,14714,6,7.57,-1011.11,165.04,10.99,33.57,42.11,4.76,44.30,0.78
2,14727,4,-127.93,-1013.43,-23.93,-380.25,-44.56,-79.96,0.51,36.23,16.05
3,14739,0,0.0,,,,,,,,
4,14740,0,0.0,,,,,,,,
5,14742,0,0.0,,,,,,,,
6,14744,0,0.0,,,,,,,,
0,14764,4,124.15,-588.99,806.88,80.57,-68.97,-19.53,27.67,20.67,-15.19
1,14778,4,-27.1,-971.19,182.37,-47.61,91.55,50.66,5.0,43.48,-0.44
2,14789,5,-141.85,-984.25,64.21,-302.12,-4.88,-29.91,0.74,36.57,13.77
3,14804,0,0.0,,,,,,,,
4,14806,0,0.0,,,,,,,,
5,14808,0,0.0,,,,,,,,
6,14810,0,0.0,,,,,,,,
0,14813,4,72.88,-572.75,794.56,86.06,-79.96,-27.47,26.77,21.41,-15.28
1,14825,4,14.77,-995.73,174.07,42.11,25.02,67.14,5.09,44.09,0.16
2,14836,5,-130.37,-993.53,67.63,-272.22,3.66,-42.72,0.6,37.37,12.66
3,14849,0,0.0,,,,,,,,
4,14851,0,0.0,,,,,,,,
5,14852,0,0.0,,,,,,,,
6,14854,0,0.0,,,,,,,,
0,14857,5,47.0,-582.64,793.33,98.27,-15.87,-37.23,25.62,22.47,-15.83
1,14873,4,2.81,-994.51,176.76,51.27,18.31,41.5,5.9,44.58,0.37
2,14884,5,-177.12,-994.75,57.01,-290.53,145.26,-42.72,0.37,37.78,11.98
3,14897,0,0.0,,,,,,,,
4,14899,0,0.0,,,,,,,,
5,14900,0,0.0,,,,,,,,
6,14902,0,0.0,,,,,,,,
0,14905,5,59.69,-600.95,776.86,73.85,27.47,-93.38,25.49,23.07,-15.66
1,14917,4,19.78,-947.02,192.5,-10.99,9.77,60.42,5.92,44.08,-0.79
2,14929,5,-126.71,-982.06,85.94,-325.32,140.38,-26.25,-0.45,38.70,10.13
3,14945,0,0.0,,,,,,,,
4,14947,0,0.0,,,,,,,,
5,14948,0,0.0,,,,,,,,
6,14950,0,0.0,,,,,,,,
0,14953,5,105.59,-612.67,769.17,91.55,-64.7,-68.97,25.37,23.14,-15.45
1,14965,5,-14.28,-949.71,203.61,-9.77,31.74,133.06,6.54,44.76,-0.20
2,14978,4,-136.11,-970.46,153.44,-356.45,114.75,1.22,-0.84,38.72,8.64
3,14989,1,0.0,,,,,,,,
4,14991,0,0.0,,,,,,,,
5,14993,0,0.0,,,,,,,,
6,14994,0,0.0,,,,,,,,
0,14998,4,36.62,-613.28,781.86,75.68,-72.02,-82.4,24.89,24.06,-16.02
1,15010,3,46.51,-1000.98,200.81,14.04,17.09,115.97,6.54,44.76,-0.20
2,15025,4,-140.01,-979.0,203.37,-366.82,118.41,-18.92,-0.4,38.82,7.51
3,15037,0,0.0,,,,,,,,
4,15038,0,0.0,,,,,,,,
5,15040,0,0.0,,,,,,,,
6,15042,0,0.09775199999999999,,,,,,,,
0,15045,5,19.29,-603.15,785.28,95.21,-29.91,-87.89,24.41,24.34,-15.83
1,15057,5,73.73,-1032.23,201.42,15.26,-36.01,99.49,7.03,44.57,-0.77
2,15070,4,-121.22,-1049.07,217.29,-358.89,123.9,-28.69,-0.77,39.26,6.38
3,15081,0,0.0,,,,,,,,
4,15083,0,0.0,,,,,,,,
5,15088,0,0.0,,,,,,,,
6,15090,0,0.195695,,,,,,,,
0,15094,4,28.32,-605.59,814.7,174.56,50.05,-61.65,24.48,23.83,-15.78
1,15106,5,48.46,-1096.68,230.35,-31.13,32.96,87.89,7.41,44.85,-0.83
2,15118,4,-194.46,-1081.67,241.09,-386.96,149.54,1.22,-0.74,39.26,3.47
3,15130,0,0.0,,,,,,,,
4,15131,0,0.0,,,,,,,,
5,15133,0,0.0,,,,,,,,
6,15135,0,0.39215700000000003,,,,,,,,
0,15138,4,97.53,-613.28,819.7,368.65,-47.0,-21.97,24.82,25.06,-14.25
1,15151,4,29.05,-1241.7,244.38,-189.21,-17.09,148.93,7.28,44.71,-0.88
2,15174,5,-258.79,-1188.35,242.31,-525.51,285.64,106.2,-0.49,39.54,2.15
3,15186,0,0.0,,,,,,,,
4,15187,1,0.0,,,,,,,,
5,15190,0,0.0,,,,,,,,
6,15192,0,0.589391,,,,,,,,
0,15195,5,44.07,-640.14,852.17,781.25,-47.0,-25.02,25.18,26.56,-13.78
1,15207,5,92.65,-1389.04,236.69,-471.8,-6.1,91.55,8.29,44.86,-2.39
2,15219,4,-124.15,-1390.14,208.5,-672.61,426.03,161.13,-0.05,40.00,-0.44
3,15232,0,0.0,,,,,,,,
4,15233,0,0.0,,,,,,,,
5,15235,0,0.0,,,,,,,,
6,15237,0,0.49067700000000003,,,,,,,,
0,15244,4,73.24,-650.63,1023.32,1433.72,-25.02,-55.54,24.32,30.03,-12.96
1,15256,4,-208.86,-1963.87,149.41,-1168.21,92.77,5.49,9.13,44.89,-4.65
2,15268,4,-399.78,-1762.08,-59.57,-988.77,590.82,215.45,0.84,39.83,-4.31
3,15280,0,0.0,,,,,,,,
4,15282,0,0.0,,,,,,,,
5,15284,0,0.0,,,,,,,,
6,15285,0,0.0,,,,,,,,
0,15289,4,90.58,-730.22,1112.67,2429.2,307.62,-292.97,24.33,35.58,-8.41
1,15301,4,-261.47,-2269.53,28.56,-2200.32,448.61,104.37,9.94,43.86,-9.13
2,15316,6,-178.96,-1711.67,-219.36,-1340.94,1272.58,194.09,1.68,39.78,-8.68
3,15329,0,0.0,,,,,,,,
4,15331,0,0.0,,,,,,,,
5,15332,1,0.0,,,,,,,,
6,15334,0,0.0,,,,,,,,
0,15337,5,313.6,-1404.66,1173.95,2822.88,574.95,-809.94,24.3,42.04,-2.06
1,15349,5,223.63,-1602.54,-57.98,-2894.29,411.38,557.25,11.02,41.66,-18.32
2,15362,5,47.73,-994.75,167.48,-1173.1,518.8,119.63,2.67,37.22,-14.69
3,15374,0,0.0,,,,,,,,
4,15376,0,0.0,,,,,,,,
5,15377,0,0.0,,,,,,,,
6,15379,0,0.0,,,,,,,,
0,15386,5,-108.4,-864.14,569.58,1672.97,45.17,-817.87,22.9,45.17,6.77
1,15398,5,-1409.3,1366.09,-1215.94,-1901.25,678.71,315.55,13.71,35.50,-27.73
2,15411,5,-253.05,-340.58,249.27,-609.13,686.04,67.14,4.54,35.79,-17.15
3,15423,0,0.0,,,,,,,,
4,15424,1,0.0,,,,,,,,
5,15426,0,0.0,,,,,,,,
6,15428,0,0.0,,,,,,,,
0,15431,4,207.64,-29.91,776.98,-504.15,612.79,-921.63,19.59,46.86,9.14
1,15443,5,555.79,-942.99,-556.03,851.44,643.31,81.79,16.11,33.09,-30.24
2,15456,3,356.45,-220.7,-156.37,261.84,609.13,155.64,4.54,35.79,-17.15
3,15471,0,0.0,,,,,,,,
4,15473,0,0.0,,,,,,,,
5,15474,1,0.0,,,,,,,,
6,15476,0,0.0,,,,,,,,
0,15479,5,425.29,-344.12,630.49,-661.62,287.48,-142.21,17.94,46.69,7.02
1,15492,5,252.2,-31.86,-418.82,1059.57,161.74,-104.98,17.26,34.59,-28.22
2,15504,5,252.69,-192.14,-67.02,869.75,182.5,-185.55,5.62,35.58,-17.14
3,15516,0,0.0,,,,,,,,
4,15517,1,0.0,,,,,,,,
5,15519,0,0.0,,,,,,,,
6,15521,0,0.0,,,,,,,,
0,15524,5,79.83,-437.38,605.59,-1462.4,47.61,587.16,19.87,45.07,2.11
1,15541,4,-159.18,-619.63,-268.31,1862.18,-89.72,-421.75,16.36,38.40,-25.20
2,15553,4,-41.38,-480.59,-94.12,1539.92,-200.81,-437.62,5.13,37.11,-14.97
3,15564,1,0.0,,,,,,,,
4,15566,0,0.0,,,,,,,,
5,15568,0,0.0,,,,,,,,
6,15569,1,0.0,,,,,,,,
0,15574,4,-39.06,-644.41,710.08,-1857.91,366.82,620.12,22.88,41.92,-3.64
1,15586,4,-141.11,-881.71,-154.54,2109.99,98.27,-737.92,13.59,42.15,-19.69
2,15598,4,-52.61,-780.4,-60.3,1984.25,-106.81,-588.99,2.7,39.12,-8.34
3,15613,0,0.0,,,,,,,,
4,15616,0,0.0,,,,,,,,
5,15618,0,0.0,,,,,,,,
6,15619,0,0.0,,,,,,,,
0,15623,4,27.83,-907.35,838.5,-2199.1,691.53,702.51,26.48,35.58,-9.45
1,15635,4,269.04,-1487.79,9.4,2367.55,67.14,-1018.07,9.33,45.15,-12.11
2,15646,5,106.08,-1205.93,-65.06,2389.53,-245.97,-681.76,-0.42,39.89,-1.60
3,15659,0,0.0,,,,,,,,
4,15661,0,0.0,,,,,,,,
5,15662,0,0.0,,,,,,,,
6,15664,0,0.0,,,,,,,,
0,15667,4,130.37,-1335.08,1074.83,-2083.13,527.34,1051.64,26.48,35.58,-9.45
1,15682,5,287.6,-1807.62,357.79,2339.48,-401.61,-968.02,4.49,45.92,-3.92
2,15694,5,5.86,-1794.07,159.91,2454.83,-386.35,-608.52,-3.04,39.58,6.36
3,15707,0,0.0,,,,,,,,
4,15708,1,0.0,,,,,,,,
5,15710,0,0.0,,,,,,,,
6,15712,0,0.0,,,,,,,,
0,15715,5,260.38,-1723.02,862.92,-2036.74,142.82,1322.63,31.23,27.47,-12.88
1,15727,5,125.61,-2033.94,945.8,2206.42,-675.05,-695.19,0.32,44.75,6.05
2,15739,6,-88.62,-1880.74,385.62,2117.92,-1044.31,-665.89,-5.07,36.23,16.14
3,15756,0,0.0,,,,,,,,
4,15757,0,0.0,,,,,,,,
5,15759,0,0.0,,,,,,,,
6,15761,0,0.0,,,,,,,,
0,15764,4,-7.57,-1609.74,385.13,-1274.41,6.1,1264.04,34.39,18.53,-15.44
1,15776,4,98.88,-1583.13,1309.69,1394.65,-805.05,-726.93,-0.59,41.16,12.96
2,15789,4,-226.07,-1572.27,743.41,1241.46,-759.28,-549.93,-5.58,31.19,25.46
3,15801,0,0.0,,,,,,,,
4,15802,0,0.0,,,,,,,,
5,15804,0,0.0,,,,,,,,
6,15806,0,0.0,,,,,,,,
0,15809,4,-575.81,-1594.36,-47.61,-767.82,133.06,1122.44,35.01,10.12,-15.10
1,15825,3,127.32,-1235.72,1703.74,811.77,-575.56,-519.41,-0.59,41.16,12.96
2,15837,4,-289.43,-1329.96,780.27,372.31,-170.29,-108.64,-4.88,27.55,27.27
3,15849,0,0.0,,,,,,,,
4,15850,0,0.0,,,,,,,,
5,15852,0,0.0,,,,,,,,
6,15854,0,0.0,,,,,,,,
0,15857,4,-312.5,-1162.11,-192.38,298.46,-10.38,-422.97,35.51,5.32,-15.08
1,15869,5,73.12,-1031.01,1183.35,-452.88,484.62,449.83,-1.59,38.71,14.71
2,15882,4,-40.65,-1176.15,347.53,-725.71,311.28,274.66,-5.66,28.37,27.59
3,15897,0,0.0,,,,,,,,
4,15899,0,0.0,,,,,,,,
5,15901,0,0.0,,,,,,,,
6,15902,0,0.0,,,,,,,,
0,15906,4,361.08,-802.49,555.79,981.45,-43.33,-1031.49,36.55,5.82,-15.09
1,15919,4,96.31,-1302.73,-496.09,-863.04,468.75,490.72,-2.01,40.10,13.56
2,15931,4,46.63,-984.62,-1225.34,-561.52,-343.63,163.57,-5.54,31.26,23.99
3,15942,0,0.0,,,,,,,,
4,15944,0,0.0,,,,,,,,
5,15946,0,0.0,,,,,,,,
6,15947,0,0.0,,,,,,,,
0,15951,4,708.86,-299.93,571.66,1406.25,-489.5,-122.68,37.37,9.40,-16.35
1,15967,5,-6.47,-817.02,213.01,-1494.14,-343.02,566.41,0.11,42.26,7.57
2,15979,5,-21.36,-998.29,59.2,-887.45,-226.44,70.19,-4.42,32.96,22.86
3,15991,0,0.0,,,,,,,,
4,15992,1,0.0,,,,,,,,
5,15994,0,0.0,,,,,,,,
6,15996,0,0.0,,,,,,,,
0,16000,5,-115.84,-1302.73,1091.55,576.17,-111.69,-538.33,37.29,12.66,-16.32
1,16012,5,97.41,-767.58,349.24,-504.15,111.08,-79.96,1.43,45.63,2.44
2,16024,4,131.71,-1329.47,-6.35,-858.76,-181.88,-260.01,-3.77,34.24,21.56
3,16039,1,0.0,,,,,,,,
4,16041,0,0.0,,,,,,,,
5,16044,0,0.0,,,,,,,,
6,16045,0,0.0,,,,,,,,
0,16049,4,194.34,-665.65,806.03,137.33,47.0,-47.0,36.95,15.03,-17.08
1,16061,4,-47.73,-971.19,171.88,-135.5,31.13,-40.89,2.16,45.21,0.89
2,16072,5,-329.1,-975.34,-101.07,-629.27,-47.0,-105.59,-3.26,35.89,20.01
3,16084,0,0.09775199999999999,,,,,,,,
4,16087,0,0.0,,,,,,,,
5,16088,0,0.0,,,,,,,,
6,16090,0,0.0,,,,,,,,
0,16093,5,153.69,-574.95,808.59,94.6,-83.01,-70.19,37.18,15.10,-16.22
1,16109,4,22.22,-1033.2,166.14,51.27,35.4,119.02,1.86,45.62,0.52
2,16121,4,-25.51,-960.45,-20.14,-462.65,60.42,-34.18,-4.17,36.63,16.50
3,16133,0,0.09775199999999999,,,,,,,,
4,16135,0,0.0,,,,,,,,
5,16137,0,0.0,,,,,,,,
6,16138,0,0.0,,,,,,,,
0,16142,4,22.83,-597.05,832.15,56.76,-101.32,-37.84,36.16,16.31,-15.82
1,16154,4,58.84,-1052.49,156.98,91.55,15.26,56.15,1.98,46.03,-0.34
2,16165,4,-40.53,-1017.58,-30.76,-358.89,-53.71,-58.59,-4.17,36.63,16.50
3,16177,0,0.0,,,,,,,,
4,16182,0,0.0,,,,,,,,
5,16184,0,0.0,,,,,,,,
6,16186,0,0.0,,,,,,,,
0,16189,4,56.88,-576.54,815.55,59.2,0.0,32.96,35.01,16.64,-16.83
1,16201,4,-13.92,-1046.51,159.42,56.76,10.99,-56.76,1.86,45.50,-0.98
2,16212,6,-280.88,-997.92,0.12,-334.47,68.36,-53.1,-3.7,37.41,15.50
3,16225,0,0.0,,,,,,,,
4,16226,1,0.0,,,,,,,,
5,16228,0,0.0,,,,,,,,
6,16230,0,0.0,,,,,,,,
0,16233,5,99.98,-565.43,787.35,15.87,-78.74,-7.93,32.95,18.91,-16.16
1,16245,4,21.97,-1006.47,165.04,97.66,-36.01,52.49,1.5,46.35,-0.11
2,16261,5,-65.19,-995.36,25.51,-317.38,148.93,-25.02,-4.1,37.95,13.61
3,16273,0,0.0,,,,,,,,
4,16275,0,0.0,,,,,,,,
5,16276,0,0.0,,,,,,,,
6,16278,0,0.0,,,,,,,,
0,16281,5,27.22,-574.1,802.49,8.54,-90.94,-21.97,31.81,20.17,-16.52
1,16293,4,38.82,-976.44,171.63,93.99,-5.49,32.96,2.11,46.35,0.42
2,16306,4,-114.62,-989.75,39.18,-338.13,90.33,-50.66,-4.83,38.95,13.22
3,16317,0,0.0,,,,,,,,
4,16319,0,0.0,,,,,,,,
5,16321,0,0.0,,,,,,,,
6,16326,0,0.0,,,,,,,,
0,16329,5,65.55,-552.86,794.19,26.86,-38.45,-50.66,30.9,21.45,-16.66
1,16342,4,17.46,-936.16,184.2,-36.01,42.72,26.25,1.97,46.55,-0.79
2,16354,4,-121.22,-956.54,117.19,-368.04,184.94,-15.26,-4.65,39.09,10.77
3,16365,0,0.0,,,,,,,,
4,16367,0,0.0,,,,,,,,
5,16369,0,0.0,,,,,,,,
6,16370,0,0.0,,,,,,,,
0,16374,4,-10.25,-558.59,793.82,11.6,-31.13,-56.76,30.04,22.35,-17.04
1,16386,5,81.79,-989.14,173.95,49.44,-64.7,0.61,2.38,46.25,-1.12
2,16402,4,-56.76,-989.62,146.73,-353.39,189.82,-32.96,-5.16,39.44,9.01
3,16413,0,0.0,,,,,,,,
4,16415,0,0.0,,,,,,,,
5,16417,0,0.0,,,,,,,,
6,16418,0,0.0,,,,,,,,
0,16422,5,37.35,-539.18,824.83,37.23,5.49,-28.69,29.55,22.89,-16.38
1,16434,4,14.89,-1051.76,170.9,75.68,-1.22,-26.25,2.38,46.25,-1.12
2,16445,5,-170.78,-1064.45,141.72,-379.64,51.27,-29.3,-5.66,39.94,8.13
3,16457,0,0.0,,,,,,,,
4,16458,0,0.0,,,,,,,,
5,16460,0,0.0,,,,,,,,
6,16462,0,0.0,,,,,,,,
0,16465,5,33.45,-540.28,825.93,132.45,99.49,-56.15,29.03,23.33,-16.30
1,16482,4,34.42,-1078.25,164.55,17.09,-20.14,-54.93,2.08,45.74,-0.78
2,16493,5,-172.49,-1080.2,178.1,-442.5,267.94,32.35,-5.25,40.32,6.43
3,16505,0,0.0,,,,,,,,
4,16507,0,0.0,,,,,,,,
5,16508,0,0.0,,,,,,,,
6,16510,0,0.0,,,,,,,,
0,16514,5,132.45,-588.87,846.07,235.6,246.58,-54.93,30.58,24.08,-16.24
1,16526,5,-34.42,-1112.55,181.27,-89.11,7.93,-65.92,1.97,46.22,-1.33
2,16538,4,-218.63,-1063.6,262.82,-509.03,239.87,153.81,-6.2,41.42,3.92
3,16553,0,0.0,,,,,,,,
4,16556,0,0.0,,,,,,,,
5,16558,0,0.0,,,,,,,,
6,16559,0,0.0,,,,,,,,
0,16563,4,120.36,-533.94,882.2,448.61,84.84,-97.05,30.83,23.78,-15.45
1,16575,4,-58.47,-1487.43,263.67,-62.26,48.83,275.88,1.82,46.84,-1.89
2,16586,5,-169.56,-1355.22,203.61,-601.81,598.14,296.63,-6.05,42.22,1.87
3,16599,0,0.0,,,,,,,,
4,16601,0,0.0,,,,,,,,
5,16602,0,0.0,,,,,,,,
6,16604,0,0.0,,,,,,,,
0,16607,5,-2.93,-482.79,1102.29,1083.98,-76.29,65.92,29.42,28.81,-15.17
1,16623,4,73.97,-2211.43,153.32,-871.58,-79.35,139.16,2.84,46.72,-3.16
2,16635,5,-66.16,-2082.4,-53.71,-1019.29,474.24,471.8,-3.61,42.30,-4.30
3,16647,1,0.0,,,,,,,,
4,16649,0,0.0,,,,,,,,
5,16651,0,0.0,,,,,,,,
6,16652,1,0.0,,,,,,,,
0,16656,4,316.65,-709.59,1236.45,2389.53,-43.33,-247.19,29.58,33.98,-10.86
1,16668,4,-434.81,-2441.77,-67.63,-1923.22,117.19,178.83,4.79,46.15,-6.19
2,16680,5,-345.7,-1856.69,-154.66,-1508.18,419.92,452.27,-1.05,41.65,-7.85
3,16696,0,0.0,,,,,,,,
4,16698,0,0.0,,,,,,,,
5,16700,0,0.0,,,,,,,,
6,16701,0,0.0,,,,,,,,
0,16705,4,320.43,-1074.22,1239.14,2836.3,446.78,-1018.07,28.71,42.25,-3.14
1,16717,4,-490.36,-1825.56,-311.77,-2942.5,591.43,438.23,6.01,44.82,-15.20
2,16730,4,-356.93,-1055.42,100.1,-1353.76,607.91,236.82,0.35,40.32,-14.01
3,16741,1,0.0,,,,,,,,
4,16743,0,0.0,,,,,,,,
5,16745,0,0.0,,,,,,,,
6,16746,0,0.0,,,,,,,,
0,16750,3,-102.42,-618.41,571.17,1792.6,-626.22,-1161.5,28.71,42.25,-3.14
1,16765,5,-1164.55,1362.92,-1557.37,-2131.96,853.88,1013.18,10.28,40.05,-26.03
2,16778,4,-332.03,-66.16,126.34,-557.25,601.81,80.57,2.1,38.53,-16.89
3,16789,0,0.0,,,,,,,,
4,16791,0,0.0,,,,,,,,
5,16793,0,0.0,,,,,,,,
6,16794,0,0.0,,,,,,,,
0,16798,4,291.75,-75.93,813.11,-497.44,388.79,-969.85,26.16,44.92,3.38
1,16811,4,288.94,-281.01,-678.96,704.35,1032.71,36.62,13.89,37.24,-29.38
2,16822,4,360.11,-141.72,-277.95,299.07,612.18,23.8,2.1,38.53,-16.89
3,16837,0,0.0,,,,,,,,
4,16838,1,0.0,,,,,,,,
5,16840,0,0.0,,,,,,,,
6,16842,0,0.0,,,,,,,,
0,16845,5,514.89,-32.23,534.06,-651.25,253.3,27.47,21.98,46.98,3.36
1,16858,4,47.61,-117.68,-502.93,926.51,-23.8,-173.34,14.64,39.34,-26.99
2,16870,4,195.19,-158.08,-65.43,924.68,164.79,-320.43,2.93,38.44,-16.53
3,16881,1,0.0,,,,,,,,
4,16883,0,0.0,,,,,,,,
5,16885,0,0.0,,,,,,,,
6,16886,0,0.0,,,,,,,,
0,16890,4,57.74,-395.14,660.03,-1298.22,257.57,780.03,22.09,45.98,1.75
1,16906,5,-291.63,-699.1,-248.66,1753.54,-155.03,-720.21,12.13,41.88,-22.92
2,16918,5,-127.69,-556.27,-82.28,1557.62,-222.17,-651.25,1.45,40.04,-14.44
3,16930,0,0.0,,,,,,,,
4,16932,0,0.0,,,,,,,,
5,16933,1,0.0,,,,,,,,
6,16935,0,0.0,,,,,,,,
0,16939,5,-83.62,-646.36,795.29,-1777.34,750.73,672.61,24.82,43.24,-2.70
1,16951,5,-31.37,-1017.94,-197.39,2042.85,187.99,-1031.49,8.69,44.86,-17.00
2,16963,5,78.25,-912.6,-61.89,1909.18,-92.16,-778.81,-1.29,41.03,-8.48
3,16979,0,0.0,,,,,,,,
4,16980,0,0.0,,,,,,,,
5,16983,0,0.0,,,,,,,,
6,16985,0,0.0,,,,,,,,
0,16988,4,-30.52,-751.59,865.97,-1824.95,854.49,806.27,29.26,37.93,-6.49
1,17000,4,461.91,-1604.98,119.51,1977.54,-37.84,-1089.48,4.36,45.39,-9.47
2,17012,4,-32.84,-1315.19,112.92,2143.55,-297.85,-735.47,-4.25,40.93,-1.92
3,17025,0,0.0,,,,,,,,
4,17026,0,0.0,,,,,,,,
5,17028,0,0.0,,,,,,,,
6,17030,0,0.0,,,,,,,,
0,17033,4,-104.25,-1401.98,1178.83,-1755.98,587.77,981.45,33.37,31.77,-8.73
1,17049,4,113.89,-2060.42,540.28,2028.81,-29.91,-1000.37,0.6,44.97,-2.37
2,17061,4,179.93,-1781.98,239.01,2203.37,-300.29,-726.32,-6.56,38.89,6.34
3,17073,1,0.0,,,,,,,,
4,17075,0,0.0,,,,,,,,
5,17077,0,0.0,,,,,,,,
6,17078,1,0.0,,,,,,,,
0,17082,4,209.23,-1673.46,783.33,-1475.83,263.67,824.58,37.11,24.46,-10.78
1,17094,4,695.19,-1756.23,957.64,1494.14,-475.46,-635.99,-2.4,42.97,1.94
2,17106,5,99.12,-1761.72,521.85,1880.49,-854.49,-611.57,-8.54,34.85,14.38
3,17122,0,0.0,,,,,,,,
4,17124,0,0.0,,,,,,,,
5,17126,0,0.0,,,,,,,,
6,17127,0,0.0,,,,,,,,
0,17131,4,-23.68,-1646.12,474.37,-1142.58,-217.9,1517.33,38.37,19.08,-13.40
1,17143,3,328.0,-1254.52,974.73,1441.04,-1195.68,-599.37,-2.4,42.97,1.94
2,17155,4,-37.11,-1433.11,462.77,1166.38,-950.93,-435.18,-8.86,31.21,20.86
3,17166,1,0.0,,,,,,,,
4,17168,0,0.0,,,,,,,,
5,17170,0,0.0,,,,,,,,
6,17171,0,0.0,,,,,,,,
0,17175,4,-378.91,-1346.56,16.6,-637.82,-378.42,1441.04,38.45,13.39,-13.83
1,17191,5,-112.18,-1154.66,1502.44,733.03,-1178.59,-206.3,-2.49,40.70,8.31
2,17204,4,-375.37,-1363.04,759.28,374.76,-740.97,-163.57,-7.89,29.72,24.82
3,17215,0,0.0,,,,,,,,
4,17217,0,0.0,,,,,,,,
5,17219,0,0.0,,,,,,,,
6,17220,0,0.0,,,,,,,,
0,17224,4,-387.21,-1127.69,-82.15,250.85,-178.83,184.94,37.45,9.28,-15.81
1,17236,5,253.05,-1073.24,1102.78,-301.51,-130.62,330.2,-1.34,39.65,11.25
2,17249,4,-59.57,-1130.98,342.77,-631.71,-155.64,200.81,-6.26,29.69,25.06
3,17264,0,0.0,,,,,,,,
4,17266,0,0.0,,,,,,,,
5,17267,1,0.0,,,,,,,,
6,17269,0,0.0,,,,,,,,
0,17272,5,371.7,-868.16,195.68,1070.56,178.22,-434.57,37.13,9.70,-16.42
1,17285,5,-55.18,-881.59,35.4,-1271.36,181.27,162.96,-0.27,40.10,10.39
2,17297,5,-207.52,-988.65,-900.39,-697.02,-247.8,93.38,-5.9,32.17,22.11
3,17309,0,0.0,,,,,,,,
4,17311,0,0.0,,,,,,,,
5,17312,0,0.0,,,,,,,,
6,17314,0,0.0,,,,,,,,
0,17317,6,775.27,-267.58,715.33,1184.69,-237.43,-459.59,37.01,15.36,-16.64
1,17334,5,133.67,-808.35,216.43,-1425.78,-34.18,600.59,0.23,42.04,5.00
2,17346,4,146.97,-1135.5,-2.2,-903.93,-12.82,115.36,-4.74,33.90,20.83
3,17357,1,0.0,,,,,,,,
4,17359,0,0.0,,,,,,,,
5,17361,0,0.0,,,,,,,,
6,17362,1,0.0,,,,,,,,
0,17367,4,-132.45,-1410.52,1119.14,571.9,-224.0,-482.18,37.44,19.03,-16.61
1,17379,4,85.33,-740.11,273.32,-435.18,98.88,146.48,1.89,43.87,0.68
2,17391,4,117.55,-1135.99,23.68,-854.49,-279.54,-64.09,-3.88,35.75,18.42
3,17402,0,0.0,,,,,,,,
4,17409,0,0.0,,,,,,,,
5,17410,0,0.0,,,,,,,,
6,17412,0,0.0,,,,,,,,
0,17415,5,11.72,-576.29,862.79,134.28,-36.01,-25.02,34.95,21.48,-15.93
1,17427,5,-19.04,-979.13,164.43,-38.45,-3.05,-86.06,2.34,44.34,-2.21
2,17439,4,-276.73,-932.86,-11.96,-626.22,-107.42,-134.28,-4.11,37.19,16.47
3,17452,0,0.0,,,,,,,,
4,17453,0,0.0,,,,,,,,
5,17455,0,0.0,,,,,,,,
6,17457,0,0.0,,,,,,,,
0,17460,4,144.78,-564.33,817.02,106.2,19.53,21.97,34.36,22.80,-16.42
1,17472,4,14.04,-1078.74,137.82,41.5,-12.82,-48.22,1.87,43.90,-1.95
2,17487,5,-178.96,-964.84,14.28,-445.56,48.22,-113.53,-5.16,38.00,14.39
3,17500,0,0.0,,,,,,,,
4,17501,1,0.0,,,,,,,,
5,17503,0,0.0,,,,,,,,
6,17505,0,0.0,,,,,,,,
0,17508,5,150.51,-594.73,809.08,65.92,-49.44,18.92,33.64,24.22,-16.28
1,17520,4,-4.39,-955.2,177.12,21.97,7.93,9.77,1.38,44.01,-2.08
2,17532,4,-147.95,-1010.01,-16.6,-336.91,-27.47,-73.85,-5.16,38.00,14.39
3,17543,0,0.0,,,,,,,,
4,17545,0,0.0,,,,,,,,
5,17546,1,0.0,,,,,,,,
6,17552,0,0.0,,,,,,,,
0,17555,5,103.39,-575.32,827.51,45.17,-94.6,16.48,32.57,25.38,-16.21
1,17567,4,-1.46,-1018.8,161.62,81.79,9.16,12.21,1.38,44.29,-1.99
2,17580,4,-144.41,-1000.61,59.94,-299.07,37.23,-56.76,-5.38,38.77,11.88
3,17591,0,0.0,,,,,,,,
4,17593,0,0.0,,,,,,,,
5,17595,0,0.0,,,,,,,,
6,17596,0,0.0,,,,,,,,
0,17600,4,96.92,-542.11,806.27,58.59,-53.1,-20.75,31.92,26.53,-16.20
1,17611,5,3.3,-985.23,162.11,31.74,14.04,18.31,1.48,44.43,-2.06
2,17628,4,-122.44,-1003.05,43.46,-289.92,8.54,-76.9,-5.75,38.88,11.24
3,17639,0,0.0,,,,,,,,
4,17641,0,0.0,,,,,,,,
5,17643,0,0.0,,,,,,,,
6,17644,0,0.0,,,,,,,,
0,17648,4,91.19,-549.19,803.34,110.47,-47.61,-19.53,31.03,27.36,-16.86
1,17660,5,-23.93,-984.62,165.04,49.44,4.88,31.13,1.78,44.62,-2.40
2,17672,5,-176.64,-1009.4,59.45,-304.57,57.37,-59.81,-6.15,39.38,10.11
3,17684,0,0.0,,,,,,,,
4,17685,0,0.0,,,,,,,,
5,17687,0,0.0,,,,,,,,
6,17689,0,0.0,,,,,,,,
0,17692,4,96.68,-574.34,801.27,139.16,-43.95,-51.88,30.32,28.59,-16.28
1,17709,4,-25.02,-947.02,172.73,-4.88,56.15,67.75,1.25,44.48,-3.96
2,17720,5,-129.03,-995.73,83.74,-329.59,42.72,-31.13,-6.23,39.42,9.19
3,17732,0,0.0,,,,,,,,
4,17734,0,0.0,,,,,,,,
5,17735,0,0.0,,,,,,,,
6,17737,0,0.0,,,,,,,,
0,17740,5,73.24,-591.92,784.67,147.71,-110.47,-65.92,29.25,30.10,-15.16
1,17753,4,8.42,-962.52,189.94,-12.82,39.67,101.32,1.25,44.48,-3.96
2,17764,4,-217.53,-1007.57,86.91,-406.49,-13.43,1.83,-6.04,39.55,6.74
3,17779,0,0.0,,,,,,,,
4,17781,0,0.0,,,,,,,,
5,17782,1,0.0,,,,,,,,
6,17784,0,0.09775199999999999,,,,,,,,
0,17788,5,72.75,-587.65,792.85,180.05,-176.39,-88.5,28.56,30.13,-16.52
1,17800,5,-14.28,-1026.37,191.53,-90.33,50.05,203.86,2.2,44.59,-3.98
2,17812,5,-160.52,-1007.2,194.58,-455.93,105.59,56.76,-5.09,39.10,5.52
3,17824,0,0.0,,,,,,,,
4,17825,1,0.0,,,,,,,,
5,17827,0,0.0,,,,,,,,
6,17829,0,0.195695,,,,,,,,
0,17832,5,-32.35,-611.57,806.15,236.82,-139.77,-99.49,28.56,30.13,-16.52
1,17848,4,94.85,-1082.4,199.58,-54.93,72.63,233.15,2.39,44.85,-3.97
2,17860,4,-78.25,-1018.92,234.86,-465.7,162.35,17.09,-5.26,39.31,3.91
3,17871,0,0.0,,,,,,,,
4,17873,0,0.0,,,,,,,,
5,17875,0,0.0,,,,,,,,
6,17876,0,0.49067700000000003,,,,,,,,
0,17881,4,-14.53,-640.26,783.33,312.5,-78.12,-46.39,28.47,30.63,-16.03
1,17893,4,123.66,-1062.87,226.68,-19.53,28.69,188.6,2.95,44.85,-3.21
2,17905,4,-119.26,-1073.36,254.15,-509.03,179.44,57.37,-5.3,39.82,2.43
3,17921,0,0.0,,,,,,,,
4,17923,0,0.0,,,,,,,,
5,17924,0,0.0,,,,,,,,
6,17926,0,0.688299,,,,,,,,
0,17929,5,9.52,-651.49,826.42,469.36,-119.63,-70.19,28.19,31.52,-15.73
1,17941,5,93.51,-1203.49,229.37,-268.55,-72.63,192.87,4.38,45.29,-4.98
2,17953,5,-179.57,-1180.66,282.71,-596.92,220.95,105.59,-5.31,40.60,-1.03
3,17966,0,0.0,,,,,,,,
4,17967,1,0.0,,,,,,,,
5,17969,0,0.0,,,,,,,,
6,17971,0,0.886699,,,,,,,,
0,17974,5,2.69,-661.01,849.0,791.02,-57.98,-15.87,28.16,32.28,-15.38
1,17986,4,32.71,-1428.59,220.46,-528.56,-71.41,20.14,5.22,46.08,-7.20
2,18002,5,-100.34,-1345.46,225.1,-729.37,361.94,148.93,-5.08,40.87,-4.02
3,18014,0,0.0,,,,,,,,
4,18016,0,0.0,,,,,,,,
5,18018,0,0.0,,,,,,,,
6,18019,1,0.886699,,,,,,,,
0,18023,4,-7.81,-697.51,969.6,1447.75,-3.05,-19.53,28.45,34.99,-13.27
1,18035,4,-75.81,-1889.28,117.68,-1211.55,32.96,-56.76,5.75,44.93,-9.14
2,18048,4,-325.81,-1840.33,-57.01,-957.03,447.39,211.79,-3.94,41.28,-7.92
3,18059,0,0.0,,,,,,,,
4,18065,0,0.0,,,,,,,,
5,18066,0,0.0,,,,,,,,
6,18068,0,0.0,,,,,,,,
0,18071,5,175.78,-768.43,1198.0,2554.93,833.13,-160.52,28.92,39.05,-10.73
1,18083,5,-140.75,-2475.34,-19.78,-2419.43,376.59,-168.46,6.38,43.51,-14.37
2,18096,5,-44.92,-1897.83,-284.3,-1361.69,1268.92,293.58,-1.59,40.56,-13.71
3,18108,0,0.0,,,,,,,,
4,18110,0,0.0,,,,,,,,
5,18111,1,0.0,,,,,,,,
6,18113,0,0.0,,,,,,,,
0,18116,5,495.0,-1417.11,1300.9,3195.19,349.12,-546.88,29.25,46.12,-2.48
1,18128,6,-70.56,-1908.45,-126.22,-3084.11,253.3,944.82,6.96,40.08,-25.85
2,18145,5,-154.17,-1089.97,115.84,-1157.84,328.98,142.82,1.09,39.36,-19.58
3,18157,0,0.0,,,,,,,,
4,18159,0,0.0,,,,,,,,
5,18160,0,0.0,,,,,,,,
6,18162,0,0.0,,,,,,,,
0,18165,5,-404.54,-606.93,417.97,1740.11,-101.93,-1010.74,27.56,51.99,7.79
1,18178,5,-2413.7,1642.7,-638.06,-1928.1,1315.92,136.11,12.01,33.56,-34.89
2,18190,4,-755.0,-64.82,24.78,-629.88,735.47,89.72,1.09,39.36,-19.58
3,18201,0,0.0,,,,,,,,
4,18206,0,0.0,,,,,,,,
5,18208,0,0.0,,,,,,,,
6,18210,0,0.0,,,,,,,,
0,18213,4,924.68,-64.09,798.34,-808.72,1146.85,-1186.52,24.38,53.70,12.35
1,18226,4,792.36,-731.2,-652.71,854.49,1016.85,191.65,15.44,33.50,-36.34
2,18238,4,489.01,-323.97,-139.4,380.25,538.94,38.45,2.8,37.74,-20.96
3,18249,1,0.0,,,,,,,,
4,18251,0,0.0,,,,,,,,
5,18253,0,0.0,,,,,,,,
6,18254,0,0.0,,,,,,,,
0,18258,5,632.81,-272.83,593.14,-1135.25,59.2,355.83,19.74,53.75,8.30
1,18271,4,138.67,-118.53,-513.06,1546.02,-324.71,-166.02,17.32,37.19,-33.58
2,18286,5,44.92,-142.7,-84.96,1151.12,-146.48,-399.78,4.1,39.06,-19.91
3,18298,0,0.0,,,,,,,,
4,18300,0,0.0,,,,,,,,
5,18301,0,0.0,,,,,,,,
6,18304,0,0.0,,,,,,,,
0,18307,5,-210.08,-553.1,653.69,-1874.39,121.46,947.27,22.4,49.56,1.48
1,18319,5,-477.78,-682.74,-261.23,2297.97,-41.5,-826.42,13.76,43.76,-26.77
2,18331,5,-174.68,-488.28,-73.36,1692.5,-212.4,-685.42,2.25,41.28,-16.24
3,18343,0,0.0,,,,,,,,
4,18345,0,0.0,,,,,,,,
5,18351,0,0.0,,,,,,,,
6,18353,0,0.0,,,,,,,,
0,18356,5,-132.32,-738.28,733.64,-2303.47,578.0,580.44,26.55,43.76,-5.87
1,18368,5,-44.31,-1108.76,-195.92,2471.31,266.11,-973.51,10.12,47.75,-17.10
2,18380,5,4.88,-947.51,-11.72,2182.01,-223.39,-729.37,-0.56,43.41,-9.20
3,18393,0,0.0,,,,,,,,
4,18395,0,0.0,,,,,,,,
5,18396,0,0.0,,,,,,,,
6,18398,0,0.0,,,,,,,,
0,18401,5,-21.12,-925.54,785.03,-2288.21,755.0,791.63,30.42,34.57,-11.87
1,18413,5,349.73,-1692.02,165.65,2338.87,20.14,-1002.81,5.42,48.25,-6.91
2,18429,5,-108.28,-1405.76,106.2,2454.22,-501.1,-684.2,-4.2,42.90,0.92
3,18442,0,0.0,,,,,,,,
4,18443,0,0.0,,,,,,,,
5,18445,0,0.0,,,,,,,,
6,18447,0,0.0,,,,,,,,
0,18450,4,95.21,-1853.52,1195.92,-2106.93,595.7,1043.09,35.35,25.77,-14.99
1,18462,3,569.58,-1788.7,580.32,2449.95,-247.19,-963.13,5.42,48.25,-6.91
2,18473,5,366.09,-1860.84,399.78,2526.86,-328.37,-644.53,-6.35,39.78,11.46
3,18486,0,0.0,,,,,,,,
4,18487,0,0.0,,,,,,,,
5,18493,0,0.0,,,,,,,,
6,18494,0,0.0,,,,,,,,
0,18498,4,205.57,-1863.65,547.49,-2007.45,-23.19,1440.43,38.37,15.60,-16.22
1,18510,4,479.49,-2001.34,1209.11,2089.23,-996.7,-632.32,2.12,47.14,1.75
2,18523,4,-324.58,-1811.16,639.04,1848.14,-1453.86,-525.51,-7.12,34.85,20.50
3,18535,0,0.0,,,,,,,,
4,18536,0,0.0,,,,,,,,
5,18538,0,0.0,,,,,,,,
6,18539,1,0.0,,,,,,,,
0,18543,4,-196.04,-1484.01,82.15,-1130.37,-211.79,1560.06,37.65,6.52,-18.48
1,18555,5,78.37,-1450.32,1563.72,1137.7,-1070.56,-700.68,-0.24,42.36,11.25
2,18572,4,-352.54,-1521.85,1024.17,816.04,-243.53,-394.29,-5.64,29.60,27.33
3,18583,1,0.0,,,,,,,,
4,18585,0,0.0,,,,,,,,
5,18587,0,0.0,,,,,,,,
6,18588,1,0.0,,,,,,,,
0,18592,4,-710.45,-1432.86,-339.36,-255.13,111.08,582.89,36.89,1.43,-17.59
1,18605,4,482.42,-1332.03,1657.71,185.55,-238.04,-131.23,-0.48,39.53,16.14
2,18617,4,-135.99,-1309.81,712.28,-313.72,-104.98,129.39,-5.54,27.91,29.13
3,18628,1,0.0,,,,,,,,
4,18630,0,0.0,,,,,,,,
5,18635,1,0.0,,,,,,,,
6,18637,0,0.0,,,,,,,,
0,18641,5,-526.49,-1080.69,253.3,730.59,-62.87,-322.88,37.02,1.93,-16.70
1,18654,4,164.18,-744.51,164.06,-1671.75,211.18,12.21,-0.01,39.20,17.05
2,18665,5,-46.39,-986.21,-287.35,-739.75,-30.52,128.78,-5.52,30.57,27.47
3,18677,0,0.0,,,,,,,,
4,18679,0,0.0,,,,,,,,
5,18680,0,0.0,,,,,,,,
6,18682,0,0.0,,,,,,,,
0,18685,6,758.54,45.17,948.49,1184.69,163.57,-300.29,37.61,6.70,-17.70
1,18698,5,66.16,-963.13,211.18,-2150.27,-182.5,333.86,1.18,41.44,14.56
2,18714,4,-114.5,-1593.26,229.74,-913.09,15.87,39.06,-4.99,32.40,25.42
3,18725,0,0.0,,,,,,,,
4,18727,0,0.0,,,,,,,,
5,18729,0,0.0,,,,,,,,
6,18731,0,0.0,,,,,,,,
0,18735,4,-346.8,-927.25,1069.82,1148.07,131.84,-7.93,38.56,11.38,-17.35
1,18747,4,1.22,-833.62,178.59,-985.72,122.07,-50.05,2.01,44.47,7.07
2,18758,5,-105.83,-1009.52,-6.1,-842.9,6.1,-39.06,-4.97,34.96,22.27
3,18770,0,0.0,,,,,,,,
4,18772,0,0.0,,,,,,,,
5,18774,0,0.0,,,,,,,,
6,18780,0,0.0,,,,,,,,
0,18783,4,-107.06,-1047.85,925.05,411.99,-76.9,-148.93,39.45,13.43,-16.63
1,18795,4,35.64,-886.11,218.38,-180.05,36.62,35.4,0.9,45.89,3.30
2,18807,4,-225.22,-1047.12,11.23,-722.66,-125.73,-31.74,-4.85,36.71,19.46
3,18819,1,0.09775199999999999,,,,,,,,
4,18821,0,0.0,,,,,,,,
5,18823,0,0.0,,,,,,,,
6,18824,1,0.0,,,,,,,,
0,18828,4,220.34,-675.29,783.69,79.35,-90.94,-122.68,39.21,13.81,-16.37
1,18840,4,-70.68,-1007.2,181.52,7.32,61.65,75.07,2.25,45.83,1.93
2,18855,6,-128.91,-930.66,-67.99,-568.85,226.44,28.69,-4.91,38.02,16.89
3,18868,0,0.09775199999999999,,,,,,,,
4,18870,0,0.0,,,,,,,,
5,18871,0,0.0,,,,,,,,
6,18873,0,0.0,,,,,,,,
0,18876,5,196.29,-587.16,793.33,10.38,-271.61,-184.33,37.66,15.01,-17.86
1,18888,5,2.2,-977.42,182.98,15.26,80.57,209.35,2.15,46.23,2.28
2,18900,5,-13.06,-1008.91,10.25,-468.14,-281.37,6.71,-4.98,38.68,16.20
3,18912,1,0.09775199999999999,,,,,,,,
4,18914,0,0.0,,,,,,,,
5,18916,0,0.0,,,,,,,,
6,18917,1,0.0,,,,,,,,
0,18921,4,7.08,-598.14,825.07,-14.04,-303.34,-40.89,34.42,17.64,-18.38
1,18936,5,34.06,-1027.47,151.61,42.72,17.09,45.78,2.53,46.77,0.71
2,18949,3,-209.11,-998.78,49.44,-357.06,-151.37,-78.74,-4.98,38.68,16.20
3,18960,0,0.0,,,,,,,,
4,18961,0,0.0,,,,,,,,
5,18963,0,0.0,,,,,,,,
6,18965,0,0.0,,,,,,,,
0,18968,4,138.55,-560.67,790.04,60.42,-104.98,7.93,32.74,18.52,-18.21
1,18980,4,-36.99,-976.56,169.68,2.44,92.16,27.47,2.33,46.14,1.23
2,18992,5,-189.09,-955.2,59.94,-299.07,84.23,-61.65,-3.44,38.93,15.09
3,19008,0,0.0,,,,,,,,
4,19009,1,0.0,,,,,,,,
5,19011,0,0.0,,,,,,,,
6,19013,0,0.0,,,,,,,,
0,19016,3,101.2,-567.75,780.88,72.63,-148.32,-20.75,32.74,18.52,-18.21
1,19027,5,10.13,-940.92,184.94,64.7,17.09,93.38,2.58,46.58,1.35
2,19040,4,-112.79,-995.85,48.46,-265.5,32.35,-68.97,-4.74,39.89,14.36
3,19051,0,0.0,,,,,,,,
4,19053,0,0.0,,,,,,,,
5,19054,1,0.0,,,,,,,,
6,19056,0,0.0,,,,,,,,
0,19059,5,73.85,-578.61,791.02,76.29,-96.44,-23.8,31.09,19.47,-17.80
1,19076,5,22.09,-977.29,184.45,43.33,27.47,33.57,3.26,46.55,1.14
2,19088,4,-187.87,-1006.1,57.62,-300.29,-15.87,-66.53,-5.2,40.25,11.83
3,19099,0,0.0,,,,,,,,
4,19101,0,0.0,,,,,,,,
5,19103,0,0.0,,,,,,,,
6,19104,0,0.0,,,,,,,,
0,19108,4,76.42,-590.09,781.37,103.76,-31.74,-29.91,30.86,20.80,-18.15
1,19121,3,9.28,-970.46,187.99,9.77,22.58,44.56,3.26,46.55,1.14
2,19131,4,-170.53,-1000.61,94.24,-359.5,93.38,-31.74,-5.14,40.50,11.85
3,19143,0,0.0,,,,,,,,
4,19148,0,0.0,,,,,,,,
5,19150,0,0.0,,,,,,,,
6,19151,1,0.0,,,,,,,,
0,19155,5,76.54,-603.52,793.95,115.36,-27.47,-42.72,30.22,20.91,-18.08
1,19168,4,4.76,-984.99,196.9,-12.21,19.53,38.45,3.58,46.90,-0.13
2,19179,5,-214.23,-1025.39,146.85,-412.6,119.63,-6.71,-5.37,40.49,9.34
3,19191,0,0.0,,,,,,,,
4,19193,0,0.0,,,,,,,,
5,19194,0,0.0,,,,,,,,
6,19196,0,0.0,,,,,,,,
0,19200,5,34.42,-613.77,793.7,172.12,-3.66,-68.36,29.61,21.17,-19.03
1,19212,4,70.8,-1001.46,200.81,-55.54,7.32,50.05,3.54,46.97,-1.21
2,19228,4,-59.08,-1046.14,214.11,-443.73,194.7,-21.97,-5.47,41.61,6.98
3,19239,0,0.0,,,,,,,,
4,19241,0,0.0,,,,,,,,
5,19243,0,0.0,,,,,,,,
6,19245,0,0.0,,,,,,,,
0,19248,5,-17.21,-612.55,814.33,253.91,184.94,-28.08,29.85,22.20,-18.26
1,19260,5,43.33,-1095.83,208.01,-29.91,-29.3,-101.32,4.32,47.03,-0.61
2,19272,5,-139.65,-1077.64,233.4,-455.32,235.6,28.69,-6.29,42.13,5.25
3,19284,0,0.0,,,,,,,,
4,19286,0,0.0,,,,,,,,
5,19292,0,0.0,,,,,,,,
6,19293,1,0.0,,,,,,,,
0,19297,4,145.26,-637.82,809.08,499.27,101.93,43.33,31.91,22.52,-17.02
1,19309,4,22.22,-1241.33,253.54,-286.25,-85.45,-7.32,2.37,47.25,-0.77
2,19320,5,-242.68,-1143.43,251.22,-510.25,117.8,114.75,-6.01,42.59,2.92
3,19333,0,0.0,,,,,,,,
4,19335,0,0.0,,,,,,,,
5,19336,0,0.0,,,,,,,,
6,19338,0,0.09775199999999999,,,,,,,,
0,19342,4,0.61,-657.1,800.42,764.77,-59.81,12.21,31.56,23.23,-18.29
1,19353,5,-25.63,-1250.85,241.94,-439.45,-92.16,31.13,3.75,47.20,-2.55
2,19369,5,-128.3,-1236.57,207.52,-621.95,289.31,162.96,-5.31,42.66,-0.04
3,19382,0,0.0,,,,,,,,
4,19383,0,0.0,,,,,,,,
5,19385,0,0.0,,,,,,,,
6,19387,0,0.0,,,,,,,,
0,19390,4,98.39,-710.21,870.85,1210.33,21.36,61.04,31.85,26.29,-15.70
1,19402,4,3.3,-1656.98,196.66,-892.94,-99.49,-92.77,3.86,46.88,-4.54
2,19415,4,-228.76,-1560.06,57.01,-841.67,252.08,254.52,-4.04,42.70,-1.89
3,19426,0,0.0,,,,,,,,
4,19428,0,0.0,,,,,,,,
5,19429,1,0.0,,,,,,,,
6,19431,0,0.0,,,,,,,,
0,19438,5,153.08,-778.44,981.32,2094.73,326.54,-205.69,31.65,31.84,-13.13
1,19450,6,-399.05,-2142.09,110.6,-1692.5,238.65,-122.68,4.44,46.91,-9.78
2,19463,5,-464.84,-1773.32,-254.27,-1206.05,576.78,306.4,-1.79,42.20,-8.22
3,19475,0,0.0,,,,,,,,
4,19477,0,0.0,,,,,,,,
5,19478,0,0.0,,,,,,,,
6,19480,0,0.0,,,,,,,,
0,19500,4,332.28,-1258.67,992.19,2922.97,1063.84,-649.41,32.19,38.53,-6.27
1,19514,5,8.54,-2210.2,-11.47,-3100.59,786.13,94.6,5.1,43.74,-19.58
2,19529,4,-258.79,-1242.68,-84.11,-1177.98,1555.79,218.51,1.01,40.93,-14.64
3,19542,0,0.0,,,,,,,,
4,19543,0,0.0,,,,,,,,
5,19545,0,0.0,,,,,,,,
6,19547,0,0.0,,,,,,,,
0,19550,4,245.12,-942.87,896.0,2070.31,-125.73,-1408.08,31.84,44.87,4.81
1,19562,4,-795.78,41.26,-576.9,-2821.66,953.98,870.36,7.92,37.62,-30.52
2,19574,4,-258.18,-684.57,590.82,-722.05,112.92,151.37,3.37,39.86,-18.65
3,19586,1,0.0,,,,,,,,
4,19588,0,0.0,,,,,,,,
5,19590,0,0.0,,,,,,,,
6,19591,0,0.0,,,,,,,,
0,19599,4,1191.41,-877.32,1384.64,-545.04,1740.72,-683.59,27.6,47.83,13.42
1,19611,4,910.52,-2224.49,-919.07,2278.44,729.37,-240.48,12.88,30.14,-36.61
2,19623,5,108.52,-222.9,-482.91,422.36,204.47,-190.43,4.08,38.53,-20.56
3,19635,0,0.0,,,,,,,,
4,19637,0,0.0,,,,,,,,
5,19639,0,0.0,,,,,,,,
6,19640,0,0.0,,,,,,,,
0,19644,4,315.92,-476.68,735.23,-1139.53,-165.41,-97.66,23.36,49.21,11.49
1,19656,4,212.65,39.06,-573.73,1472.17,195.92,128.78,14.97,34.35,-33.96
2,19672,5,226.81,-106.2,-95.09,958.86,102.54,-249.02,3.6,39.23,-18.63
3,19684,0,0.0,,,,,,,,
4,19686,0,0.0,,,,,,,,
5,19687,0,0.0,,,,,,,,
6,19689,0,0.0,,,,,,,,
0,19692,5,43.95,-433.96,600.22,-2131.96,-34.79,645.75,22.77,48.62,6.04
1,19704,4,-159.06,-815.19,-330.44,2442.63,-87.28,-533.45,14.71,39.72,-28.52
2,19717,5,36.5,-490.6,-129.52,1771.24,-336.91,-666.5,1.1,41.92,-13.96
3,19729,0,0.0,,,,,,,,
4,19730,1,0.0,,,,,,,,
5,19732,0,0.0,,,,,,,,
6,19734,0,0.0,,,,,,,,
0,19737,5,-75.56,-698.85,671.26,-2261.35,355.83,863.65,25.99,44.06,-1.65
1,19753,5,-232.79,-1122.92,-126.95,2504.27,39.67,-872.19,11.01,44.06,-19.96
2,19766,4,-76.66,-854.25,-53.1,2169.8,-203.25,-711.67,-2.33,43.03,-4.46
3,19778,0,0.0,,,,,,,,
4,19779,0,0.0,,,,,,,,
5,19781,0,0.0,,,,,,,,
6,19783,0,0.0,,,,,,,,
0,19786,4,-110.23,-903.69,844.24,-2437.13,635.99,627.44,30.13,37.66,-8.12
1,19799,4,305.3,-1660.77,29.05,2518.92,286.87,-968.02,7.4,47.25,-12.21
2,19811,3,67.5,-1288.45,-46.39,2531.74,-351.56,-726.93,-2.33,43.03,-4.46
3,19833,0,0.0,,,,,,,,
4,19835,0,0.0,,,,,,,,
5,19836,0,0.0,,,,,,,,
6,19838,0,0.0,,,,,,,,
0,19842,5,73.97,-1617.19,1080.81,-2030.03,484.01,994.87,34.91,28.98,-13.61
1,19854,5,593.63,-1923.46,671.75,2183.84,-284.42,-917.97,3.03,46.98,-3.75
2,19866,5,357.54,-1911.99,418.95,2504.27,-408.33,-654.3,-7.7,37.43,14.92
3,19878,0,0.0,,,,,,,,
4,19880,0,0.0,,,,,,,,
5,19881,0,0.0,,,,,,,,
6,19884,0,0.0,,,,,,,,
0,19887,5,354.98,-2177.98,698.49,-1890.26,20.75,1403.2,37.33,20.30,-15.73
1,19903,5,214.48,-1891.11,1316.16,2139.89,-1090.09,-485.84,-0.79,44.59,6.20
2,19915,5,-246.83,-1859.5,662.84,1830.44,-1746.83,-584.72,-6.35,31.77,23.62
3,19928,0,0.0,,,,,,,,
4,19930,0,0.0,,,,,,,,
5,19931,0,0.0,,,,,,,,
6,19933,0,0.0,,,,,,,,
0,19936,5,-205.2,-1655.27,-72.75,-1117.55,-338.75,1618.04,38.71,10.24,-17.40
1,19949,4,534.91,-1383.67,1696.29,1228.64,-1281.74,-469.36,-0.24,41.14,13.60
2,19964,6,-218.99,-1513.79,1180.66,606.69,-753.78,-209.96,-4.52,28.26,28.65
3,19977,0,0.0,,,,,,,,
4,19979,0,0.0,,,,,,,,
5,19981,0,0.0,,,,,,,,
6,19982,0,0.0,,,,,,,,
0,19986,4,-704.71,-1437.5,-486.94,-73.24,-271.0,496.83,36.78,3.59,-17.24
1,19998,4,80.08,-1312.87,1799.8,-69.58,-263.06,159.3,1.75,39.51,16.87
2,20009,5,-420.9,-1315.43,792.11,-566.41,-140.99,219.12,-4.52,28.26,28.65
3,20021,0,0.0,,,,,,,,
4,20023,0,0.0,,,,,,,,
5,20024,1,0.0,,,,,,,,
6,20026,0,0.0,,,,,,,,
0,20029,5,193.6,-774.78,35.89,1001.59,364.38,-569.46,35.29,3.37,-18.47
1,20045,5,-41.14,-1317.63,-372.8,-1289.06,451.66,-1.83,0.63,41.65,12.33
2,20058,5,-175.05,-774.41,-837.28,-584.72,65.92,142.21,-3.64,30.37,27.75
3,20070,0,0.0,,,,,,,,
4,20071,0,0.0,,,,,,,,
5,20073,0,0.0,,,,,,,,
6,20075,0,0.0,,,,,,,,
0,20078,4,1015.01,40.65,790.53,1318.97,-45.78,-236.21,37.13,8.44,-18.07
1,20090,4,62.87,-692.14,279.3,-2006.84,-313.11,450.44,2.39,44.68,6.34
2,20103,4,4.15,-1301.03,126.34,-906.98,-59.81,12.21,-4.35,33.59,24.32
3,20118,0,0.0,,,,,,,,
4,20120,0,0.0,,,,,,,,
5,20121,1,0.0,,,,,,,,
6,20123,0,0.0,,,,,,,,
0,20127,4,-675.54,-1461.06,1302.0,803.22,-0.61,-324.71,37.63,11.63,-18.41
1,20140,4,253.78,-627.08,396.12,-718.38,97.66,-97.05,2.16,46.85,2.92
2,20151,5,211.06,-1450.68,182.62,-892.33,47.61,-218.51,-3.75,34.81,22.85
3,20163,0,0.0,,,,,,,,
4,20165,0,0.0,,,,,,,,
5,20166,0,0.0,,,,,,,,
6,20168,0,0.0,,,,,,,,
0,20171,5,92.53,-639.16,848.88,220.34,155.03,-6.1,37.24,14.48,-18.27
1,20189,4,-137.82,-812.26,196.9,-156.86,50.05,-255.74,1.79,46.34,1.88
2,20201,4,-629.03,-721.44,-100.95,-706.79,-406.49,-148.93,-3.81,36.87,20.52
3,20212,1,0.0,,,,,,,,
4,20214,0,0.0,,,,,,,,
5,20216,0,0.0,,,,,,,,
6,20217,0,0.0,,,,,,,,
0,20221,5,247.68,-583.37,808.59,68.36,-126.34,-99.49,37.49,15.72,-17.24
1,20234,3,-42.85,-984.01,176.27,55.54,43.33,121.46,1.79,46.34,1.88
2,20244,5,101.32,-976.2,-51.27,-570.07,440.67,-12.21,-3.05,38.26,17.80
3,20260,0,0.0,,,,,,,,
4,20261,0,0.0,,,,,,,,
5,20263,0,0.0,,,,,,,,
6,20265,0,0.0,,,,,,,,
0,20269,4,68.24,-578.61,828.49,31.13,-287.48,-23.19,35.9,16.85,-17.87
1,20281,4,17.33,-1028.2,149.9,40.28,40.28,108.03,1.87,46.62,0.62
2,20293,4,-76.42,-1032.1,-11.96,-393.07,-64.7,-62.26,-3.97,39.83,16.19
3,20304,0,0.0,,,,,,,,
4,20306,0,0.0,,,,,,,,
5,20307,1,0.0,,,,,,,,
6,20310,0,0.0,,,,,,,,
0,20314,4,35.03,-547.0,837.28,78.74,-91.55,26.25,33.53,18.86,-17.82
1,20329,5,4.64,-1010.62,159.67,7.93,54.32,-34.18,2.32,46.52,1.86
2,20341,4,-307.37,-949.58,30.64,-322.88,-84.84,-93.99,-4.33,39.51,14.73
3,20353,0,0.0,,,,,,,,
4,20355,0,0.0,,,,,,,,
5,20357,0,0.0,,,,,,,,
6,20358,0,0.0,,,,,,,,
0,20362,4,108.15,-540.16,798.1,81.79,-99.49,-22.58,32.2,19.91,-18.30
1,20373,5,7.69,-1016.85,152.34,19.53,-38.45,76.29,2.2,47.20,0.10
2,20385,5,-0.49,-990.97,26.86,-329.59,170.9,-32.96,-4.06,40.33,13.02
3,20398,0,0.0,,,,,,,,
4,20403,0,0.0,,,,,,,,
5,20405,0,0.0,,,,,,,,
6,20406,0,0.0,,,,,,,,
0,20410,4,64.45,-577.51,805.42,108.64,-81.79,-22.58,31.14,20.32,-18.68
1,20421,5,19.9,-983.76,165.53,6.71,64.7,64.09,2.66,46.56,1.16
2,20433,5,-146.12,-968.87,104.74,-307.01,13.43,-61.65,-5.0,40.48,10.56
3,20446,0,0.0,,,,,,,,
4,20447,0,0.0,,,,,,,,
5,20449,0,0.0,,,,,,,,
6,20451,0,0.0,,,,,,,,
0,20454,4,27.71,-589.48,797.73,86.67,-30.52,-23.19,30.13,21.40,-18.63
1,20466,4,35.16,-970.95,176.88,45.17,-7.32,32.35,2.7,47.23,1.44
2,20482,5,-128.91,-1018.43,87.4,-311.28,126.95,-47.61,-5.52,41.15,10.55
3,20494,0,0.0,,,,,,,,
4,20495,1,0.0,,,,,,,,
5,20497,0,0.0,,,,,,,,
6,20499,0,0.0,,,,,,,,
0,20502,5,41.5,-584.84,796.26,95.83,19.53,-47.61,29.75,22.28,-17.47
1,20514,4,33.94,-981.32,180.66,-1.83,-10.38,10.38,3.05,46.63,0.06
2,20527,4,-106.2,-981.32,134.77,-352.78,150.76,-40.28,-5.04,41.43,8.34
3,20538,0,0.0,,,,,,,,
4,20540,0,0.0,,,,,,,,
5,20541,1,0.0,,,,,,,,
6,20547,0,0.0,,,,,,,,
0,20550,5,92.9,-567.75,800.29,126.95,21.97,-36.62,29.96,22.46,-18.20
1,20562,5,13.06,-1052.37,188.6,4.88,2.44,21.97,3.17,46.19,0.78
2,20575,4,-191.77,-1008.06,157.71,-404.66,134.89,-20.75,-5.77,41.74,6.63
3,20586,0,0.0,,,,,,,,
4,20588,0,0.0,,,,,,,,
5,20590,0,0.0,,,,,,,,
6,20591,0,0.0,,,,,,,,
0,20595,4,32.47,-592.04,805.79,193.48,0.61,-57.98,29.8,23.34,-17.72
1,20606,6,75.81,-1093.63,190.8,0.0,-15.87,58.59,2.91,46.23,-1.68
2,20619,3,-127.56,-1070.31,196.04,-464.48,144.65,14.04,-5.77,41.74,6.63
3,20633,0,0.0,,,,,,,,
4,20635,0,0.0,,,,,,,,
5,20637,0,0.0,,,,,,,,
6,20638,1,0.09775199999999999,,,,,,,,
0,20642,3,73.97,-603.15,833.01,369.26,1.22,-22.58,29.8,23.34,-17.72
1,20654,4,54.32,-1253.91,231.08,-7.32,1.83,148.32,3.52,47.13,-0.40
2,20665,5,-235.35,-1130.0,233.15,-523.68,180.05,119.63,-5.94,41.97,4.50
3,20677,0,0.0,,,,,,,,
4,20679,0,0.0,,,,,,,,
5,20680,0,0.0,,,,,,,,
6,20682,0,0.195695,,,,,,,,
0,20685,5,-52.86,-637.45,847.53,640.26,-35.4,18.31,29.43,24.87,-18.49
1,20702,4,153.81,-1504.76,188.35,-356.45,-108.64,42.11,4.71,47.47,-2.38
2,20714,4,-40.65,-1391.85,177.12,-662.84,372.92,207.52,-5.48,42.52,2.36
3,20725,1,0.0,,,,,,,,
4,20727,0,0.0,,,,,,,,
5,20729,0,0.0,,,,,,,,
6,20730,1,0.29383000000000004,,,,,,,,
0,20734,5,76.42,-645.26,1037.23,1071.17,40.89,-148.32,30.29,25.63,-16.55
1,20747,4,-183.96,-1951.66,141.11,-917.36,-114.75,-13.43,4.97,46.95,-4.97
2,20759,4,-370.61,-1783.94,-30.88,-1000.37,234.99,286.87,-4.96,43.16,-1.05
3,20774,0,0.0,,,,,,,,
4,20776,0,0.0,,,,,,,,
5,20779,0,0.0,,,,,,,,
6,20780,0,0.0,,,,,,,,
0,20784,4,185.55,-683.59,1114.01,2268.68,43.95,-258.79,31.86,28.55,-15.64
1,20796,4,-689.58,-2329.71,-108.03,-2053.83,368.04,158.69,6.27,46.14,-13.46
2,20808,4,-672.12,-1857.91,-341.31,-1366.58,670.78,299.07,-3.05,42.86,-5.36
3,20819,1,0.0,,,,,,,,
4,20822,0,0.0,,,,,,,,
5,20824,0,0.0,,,,,,,,
6,20825,0,0.0,,,,,,,,
0,20829,4,412.11,-1096.8,1200.32,3098.75,462.65,-828.25,30.36,36.35,-11.15
1,20845,3,-473.51,-2094.24,-137.45,-3115.23,900.88,822.14,6.27,46.14,-13.46
2,20856,4,-289.67,-1358.03,-199.71,-1430.66,1202.39,52.49,-0.89,42.53,-11.76
3,20868,1,0.0,,,,,,,,
4,20870,0,0.0,,,,,,,,
5,20872,0,0.0,,,,,,,,
6,20873,0,0.0,,,,,,,,
0,20877,4,245.85,-1277.22,1026.86,2406.62,139.16,-1318.97,28.93,44.14,-0.77
1,20889,4,-593.63,-440.92,-400.02,-2820.43,1120.0,807.5,10.38,41.91,-25.54
2,20901,4,-217.77,-653.44,521.85,-918.58,772.09,39.06,1.38,39.71,-17.55
3,20917,0,0.0,,,,,,,,
4,20919,0,0.0,,,,,,,,
5,20921,0,0.0,,,,,,,,
6,20922,0,0.0,,,,,,,,
0,20926,4,1023.44,-264.53,933.47,-311.89,1235.96,-1110.23,25.33,46.83,7.70
1,20938,4,1349.0,-875.37,-647.46,765.99,378.42,-84.84,15.52,35.21,-34.17
2,20951,4,808.47,-274.17,-316.77,51.27,614.01,-12.21,3.34,37.72,-21.26
3,20962,0,0.0,,,,,,,,
4,20964,0,0.0,,,,,,,,
5,20965,1,0.0,,,,,,,,
6,20967,0,0.0,,,,,,,,
0,20970,5,502.56,-146.36,665.16,-493.16,160.52,527.95,20.43,49.22,8.56
1,20986,4,-25.15,11.6,-564.94,965.58,-318.6,-227.66,16.92,35.03,-33.79
2,20999,4,72.88,-76.78,-139.65,929.57,-357.67,-460.21,3.25,38.96,-20.78
3,21011,0,0.0,,,,,,,,
4,21012,0,0.0,,,,,,,,
5,21014,0,0.0,,,,,,,,
6,21015,1,0.0,,,,,,,,
0,21019,4,-144.53,-434.45,740.6,-1509.4,225.83,903.93,21.98,48.79,6.13
1,21031,5,-193.24,-481.45,-421.02,1834.11,-240.48,-692.14,14.36,38.22,-30.14
2,21044,4,5.49,-448.97,-181.52,1580.2,-440.06,-680.54,-0.06,40.83,-16.26
3,21059,0,0.0,,,,,,,,
4,21061,0,0.0,,,,,,,,
5,21063,0,0.0,,,,,,,,
6,21064,0,0.0,,,,,,,,
0,21068,4,-143.43,-586.3,763.92,-2041.02,481.57,740.36,25.96,45.34,0.09
1,21081,4,-32.23,-896.48,-304.2,2316.28,14.04,-919.19,11.46,42.21,-24.65
2,21093,4,-52.86,-795.17,-147.34,2162.48,-202.03,-705.57,-3.56,41.85,-9.67
3,21104,0,0.0,,,,,,,,
4,21106,0,0.0,,,,,,,,
5,21108,0,0.0,,,,,,,,
6,21109,0,0.0,,,,,,,,
0,21113,4,-32.1,-927.86,926.51,-2419.43,871.58,842.9,29.75,40.22,-3.82
1,21129,5,353.88,-1488.65,-141.11,2632.45,80.57,-1121.22,6.86,44.82,-16.46
2,21141,5,169.19,-1158.2,-89.48,2547.0,-125.12,-710.45,-6.09,41.91,-1.25
3,21153,0,0.0,,,,,,,,
4,21155,0,0.0,,,,,,,,
5,21156,0,0.0,,,,,,,,
6,21158,0,0.0,,,,,,,,
0,21161,6,81.54,-1236.82,1039.43,-2402.95,557.86,1098.63,35.45,34.88,-10.02
1,21174,5,336.67,-2229.61,415.16,2579.35,-330.81,-996.7,2.01,45.62,-8.23
2,21186,5,-0.49,-1915.65,327.39,2553.71,-446.17,-631.1,-9.86,40.06,9.02
3,21202,0,0.0,,,,,,,,
4,21203,1,0.0,,,,,,,,
5,21206,0,0.0,,,,,,,,
6,21208,0,0.0,,,,,,,,
0,21211,5,183.35,-2082.28,837.77,-2071.53,187.99,1284.18,42.55,23.93,-16.99
1,21223,5,481.69,-2061.65,1248.41,2185.06,-692.14,-838.62,-5.02,45.96,-1.79
2,21235,5,148.68,-2020.39,626.83,2189.94,-1332.4,-736.08,-12.48,36.83,21.06
3,21248,0,0.0,,,,,,,,
4,21250,0,0.0,,,,,,,,
5,21251,0,0.0,,,,,,,,
6,21253,0,0.0,,,,,,,,
0,21256,5,4.88,-1931.64,232.42,-1487.43,-134.89,1621.7,42.63,8.89,-18.16
1,21272,5,352.17,-1471.8,1505.86,1480.71,-1280.52,-717.16,-10.36,44.56,11.62
2,21284,5,-284.18,-1494.51,941.16,1073.0,-803.22,-389.4,-9.8,31.69,27.32
3,21297,0,0.0,,,,,,,,
4,21299,0,0.0,,,,,,,,
5,21300,0,0.0,,,,,,,,
6,21302,0,0.0,,,,,,,,
0,21305,5,-854.0,-1712.16,-390.63,-465.09,-130.0,1236.57,40.37,1.62,-16.52
1,21317,5,-145.26,-1307.5,2015.26,260.62,-486.45,-364.99,-7.4,39.34,19.49
2,21330,5,-348.75,-1348.75,959.59,-12.82,-172.73,57.37,-9.17,30.08,28.91
3,21346,0,0.0,,,,,,,,
4,21348,0,0.0,,,,,,,,
5,21349,0,0.0,,,,,,,,
6,21351,0,0.0,,,,,,,,
0,21354,5,-786.38,-1298.46,219.73,554.81,-1.22,-505.98,39.69,0.74,-16.16
1,21366,5,-344.48,-1802.86,831.79,-1610.72,479.74,-47.0,-6.29,39.31,18.95
2,21379,4,-374.51,-989.01,8.42,-928.34,92.16,158.08,-9.17,30.08,28.91
3,21390,0,0.0,,,,,,,,
4,21391,0,0.0,,,,,,,,
5,21393,0,0.0,,,,,,,,
6,21395,0,0.0,,,,,,,,
0,21398,4,1120.0,339.72,1384.03,755.62,306.4,-499.88,41.69,3.53,-16.32
1,21414,5,-13.43,-1062.62,31.13,-2144.16,-25.02,448.61,-4.77,42.14,13.26
2,21427,4,19.65,-1487.06,155.15,-797.73,80.57,28.08,-10.01,32.47,28.21
3,21438,0,0.0,,,,,,,,
4,21440,0,0.0,,,,,,,,
5,21442,0,0.0,,,,,,,,
6,21443,0,0.0,,,,,,,,
0,21447,4,-308.96,-928.96,1098.75,1154.79,-14.65,-139.77,43.92,5.82,-15.89
1,21459,5,-84.23,-978.52,198.85,-1034.55,156.25,137.94,-3.63,45.42,6.51
2,21472,4,5.74,-1140.14,-0.49,-726.93,-309.45,-82.4,-8.91,34.96,25.74
3,21487,0,0.09775199999999999,,,,,,,,
4,21489,0,0.0,,,,,,,,
5,21490,0,0.0,,,,,,,,
6,21492,0,0.0,,,,,,,,
0,21495,5,329.83,-1007.08,878.66,717.16,-73.85,-166.63,45.09,9.17,-16.50
1,21508,5,-4.64,-832.15,240.97,-389.4,94.6,37.23,-3.47,46.62,4.31
2,21520,4,-327.64,-1139.77,59.08,-708.01,-352.17,-112.3,-8.08,36.01,22.57
3,21532,0,0.195695,,,,,,,,
4,21533,1,0.0,,,,,,,,
5,21535,0,0.0,,,,,,,,
6,21537,0,0.0,,,,,,,,
0,21540,5,222.29,-635.86,811.16,289.92,54.93,-56.15,44.18,11.16,-14.84
1,21557,4,-92.04,-943.73,211.91,-93.99,20.14,-53.71,-4.03,46.86,2.82
2,21568,5,-193.48,-939.7,-36.99,-698.85,584.11,27.47,-7.58,37.94,21.44
3,21580,0,0.195695,,,,,,,,
4,21582,0,0.0,,,,,,,,
5,21583,1,0.0,,,,,,,,
6,21585,0,0.0,,,,,,,,
0,21590,4,239.75,-591.31,768.68,214.23,41.5,-45.17,43.26,13.33,-13.96
1,21601,4,-69.58,-1004.76,187.38,26.25,23.8,-18.31,-4.03,46.86,2.82
2,21612,5,-102.78,-967.53,-58.96,-316.16,109.25,-18.92,-10.05,40.32,17.69
3,21624,0,0.09775199999999999,,,,,,,,
4,21629,0,0.0,,,,,,,,
5,21632,0,0.0,,,,,,,,
6,21634,0,0.0,,,,,,,,
0,21637,4,208.01,-626.95,757.81,184.33,10.99,-86.67,43.33,14.00,-15.42
1,21649,4,-47.12,-941.53,198.24,3.05,61.65,3.66,-3.74,47.28,3.13
2,21660,5,-186.4,-1000.73,-8.54,-369.26,-29.91,-38.45,-10.41,41.53,16.22
3,21672,0,0.0,,,,,,,,
4,21675,0,0.0,,,,,,,,
5,21676,1,0.0,,,,,,,,
6,21678,0,0.0,,,,,,,,
0,21681,5,257.93,-604.49,729.86,173.95,-4.88,-98.27,42.18,15.53,-13.84
1,21693,5,-82.03,-978.15,186.04,-15.87,124.51,86.06,-4.68,46.58,2.87
2,21709,4,-132.81,-990.11,47.0,-360.72,245.36,-4.88,-10.34,41.38,14.31
3,21721,1,0.0,,,,,,,,
4,21723,0,0.0,,,,,,,,
5,21725,0,0.0,,,,,,,,
6,21726,1,0.0,,,,,,,,
0,21730,4,162.6,-617.92,748.9,183.11,-21.36,-138.55,41.6,16.48,-14.20
1,21742,4,-14.77,-959.72,203.61,-19.53,66.53,50.66,-3.66,47.02,1.94
2,21753,5,-121.22,-986.57,75.81,-357.67,89.11,-18.31,-11.05,42.68,12.43
3,21766,0,0.0,,,,,,,,
4,21768,0,0.0,,,,,,,,
5,21773,0,0.0,,,,,,,,
6,21775,0,0.0,,,,,,,,
0,21778,5,193.73,-647.34,705.44,184.94,62.26,-90.94,41.48,17.53,-14.11
1,21790,4,-59.69,-1025.76,203.13,37.84,39.67,-10.99,-3.81,46.91,2.20
2,21803,4,-254.15,-965.58,127.08,-352.17,-53.71,16.48,-10.68,42.87,10.41
3,21814,0,0.0,,,,,,,,
4,21816,0,0.0,,,,,,,,
5,21818,0,0.0,,,,,,,,
6,21819,0,0.0,,,,,,,,
0,21823,3,225.95,-651.61,690.43,131.84,-37.84,-162.35,41.48,17.53,-14.11
1,21834,4,-66.65,-980.59,227.05,54.32,47.61,100.1,-3.17,46.85,1.50
2,21850,5,-193.12,-978.76,121.09,-379.03,-64.7,64.7,-10.51,43.23,9.03
3,21862,0,0.0,,,,,,,,
4,21863,0,0.0,,,,,,,,
5,21865,0,0.0,,,,,,,,
6,21867,0,0.0,,,,,,,,
0,21870,4,200.2,-681.15,697.27,77.51,-207.52,-184.94,41.92,17.81,-14.32
1,21882,4,-27.95,-964.6,232.18,52.49,12.82,207.52,-3.32,47.86,1.26
2,21895,4,-186.16,-990.23,164.92,-427.25,-123.29,80.57,-8.83,42.54,7.43
3,21906,0,0.0,,,,,,,,
4,21908,0,0.0,,,,,,,,
5,21910,0,0.0,,,,,,,,
6,21911,0,0.0,,,,,,,,
0,21918,5,160.52,-670.53,714.36,57.98,-291.75,-169.07,39.73,19.73,-14.66
1,21931,5,-6.23,-1015.63,230.59,-4.88,28.08,266.11,-1.48,48.24,0.28
2,21943,5,-111.57,-998.41,221.56,-488.28,-94.6,95.21,-8.3,42.49,5.00
3,21955,0,0.0,,,,,,,,
4,21956,0,0.0,,,,,,,,
5,21958,0,0.0,,,,,,,,
6,21960,0,0.0,,,,,,,,
0,21963,4,61.77,-671.75,746.95,73.85,-268.55,-147.71,37.74,21.11,-15.25
1,21976,4,33.33,-1069.46,239.5,-32.96,37.23,244.14,-0.76,48.61,1.59
2,21988,3,-214.23,-1050.9,245.97,-519.41,-96.44,110.47,-8.3,42.49,5.00
3,22002,0,0.0,,,,,,,,
4,22004,0,0.0,,,,,,,,
5,22005,0,0.0,,,,,,,,
6,22007,0,0.0,,,,,,,,
0,22010,6,124.88,-724.0,729.13,186.77,-341.8,-59.2,33.94,23.79,-15.48
1,22023,5,142.46,-1069.82,269.53,28.08,12.82,310.67,0.82,49.08,0.18
2,22035,4,-80.2,-1097.05,326.17,-532.23,36.01,135.5,-7.12,42.94,5.27
3,22046,1,0.0,,,,,,,,
4,22048,0,0.0,,,,,,,,
5,22050,0,0.0,,,,,,,,
6,22051,1,0.29383000000000004,,,,,,,,
0,22055,5,-59.94,-653.32,831.05,426.03,-424.8,-2.44,30.47,27.45,-15.81
1,22072,4,82.76,-1310.3,249.15,-286.87,-136.11,172.73,2.21,48.55,-1.32
2,22084,4,-75.68,-1274.78,290.04,-618.9,107.42,111.08,-6.24,42.68,1.94
3,22095,0,0.0,,,,,,,,
4,22097,0,0.0,,,,,,,,
5,22098,0,0.0,,,,,,,,
6,22100,0,0.39215700000000003,,,,,,,,
0,22105,4,-84.96,-679.69,860.96,1008.91,-166.02,87.89,29.03,29.36,-14.99
1,22116,5,118.41,-1475.59,215.82,-673.83,-176.39,-109.86,2.69,49.01,-5.40
2,22128,5,-116.21,-1539.55,160.03,-821.53,341.19,112.92,-5.48,43.42,-1.04
3,22145,0,0.0,,,,,,,,
4,22146,0,0.0,,,,,,,,
5,22148,0,0.0,,,,,,,,
6,22150,0,0.09775199999999999,,,,,,,,
0,22153,5,-51.88,-721.31,1043.95,1671.75,394.9,59.81,29.93,31.32,-14.50
1,22165,5,-218.38,-2251.83,31.37,-1502.08,-45.17,-502.32,2.75,47.97,-10.39
2,22177,5,-201.17,-2087.4,-349.49,-1187.74,1046.75,234.99,-4.72,43.01,-4.43
3,22190,0,0.0,,,,,,,,
4,22192,0,0.0,,,,,,,,
5,22193,0,0.0,,,,,,,,
6,22195,0,0.0,,,,,,,,
0,22198,5,186.77,-770.51,1291.26,3430.79,1699.22,192.87,31.79,36.80,-9.13
1,22214,3,478.27,-2538.21,-158.69,-3456.42,530.4,-805.05,2.75,47.97,-10.39
2,22225,5,173.1,-1663.94,-192.99,-1411.13,1629.64,285.03,-2.87,42.21,-10.27
3,22238,0,0.0,,,,,,,,
4,22239,1,0.0,,,,,,,,
5,22241,0,0.0,,,,,,,,
6,22243,0,0.0,,,,,,,,
0,22246,5,1001.1,-2001.95,1160.28,2854.0,371.09,-944.21,34.85,44.03,3.93
1,22258,5,-471.92,-1498.54,-211.79,-3271.48,340.58,822.75,1.54,41.96,-22.66
2,22270,6,-301.03,-858.4,22.34,-856.93,-463.87,126.95,0.29,40.50,-17.77
3,22287,0,0.0,,,,,,,,
4,22288,0,0.0,,,,,,,,
5,22290,0,0.0,,,,,,,,
6,22292,0,0.0,,,,,,,,
0,22295,4,508.06,-1670.04,1756.84,612.79,1339.11,-657.96,31.79,48.43,12.07
1,22307,4,-345.83,162.72,-917.6,604.86,1013.79,-639.04,4.47,33.44,-33.03
2,22320,4,-250.98,-115.97,-360.96,-68.36,864.26,-141.6,1.77,38.71,-21.03
3,22332,0,0.0,,,,,,,,
4,22333,0,0.0,,,,,,,,
5,22335,0,0.0,,,,,,,,
6,22337,0,0.0,,,,,,,,
0,22340,4,281.74,-43.82,619.51,-1146.85,132.45,-1028.44,27.36,49.69,11.47
1,22356,5,391.48,-214.11,-597.29,1254.27,692.14,170.9,8.03,33.48,-35.66
2,22369,4,247.07,-45.9,-48.46,744.63,552.37,-92.77,2.43,38.93,-19.52
3,22380,0,0.0,,,,,,,,
4,22382,0,0.0,,,,,,,,
5,22383,1,0.0,,,,,,,,
6,22385,0,0.0,,,,,,,,
0,22389,4,296.26,-364.5,587.04,-1726.07,-263.06,213.01,24.8,48.68,6.19
1,22401,5,-135.99,-460.82,-437.62,2135.62,91.55,-45.78,11.18,36.93,-32.20
2,22413,5,167.85,-370.61,-122.56,1511.23,-1.22,-496.22,2.66,40.44,-16.20
3,22429,0,0.0,,,,,,,,
4,22430,1,0.0,,,,,,,,
5,22432,0,0.0,,,,,,,,
6,22434,0,0.0,,,,,,,,
0,22437,6,224.37,-590.09,600.71,-2141.11,131.23,892.94,26.31,45.39,-0.81
1,22450,4,-239.38,-830.08,-269.9,2481.69,-153.81,-566.41,10.39,42.19,-25.32
2,22462,5,-261.6,-618.04,-37.11,2111.21,-312.5,-689.7,-0.44,42.21,-9.41
3,22474,0,0.0,,,,,,,,
4,22475,1,0.0,,,,,,,,
5,22477,0,0.0,,,,,,,,
6,22479,0,0.0,,,,,,,,
0,22482,6,29.17,-763.18,710.33,-2479.86,490.72,826.42,29.61,38.82,-7.70
1,22499,4,-94.85,-1601.44,15.75,2678.22,173.95,-906.37,6.97,45.56,-15.64
2,22511,4,27.59,-1160.28,-52.86,2516.48,-386.35,-809.33,-3.11,41.64,-0.42
3,22522,1,0.0,,,,,,,,
4,22524,0,0.0,,,,,,,,
5,22526,0,0.0,,,,,,,,
6,22528,1,0.0,,,,,,,,
0,22532,4,67.02,-1405.27,1067.5,-2256.47,343.63,842.9,32.73,30.10,-11.78
1,22544,4,253.78,-1909.18,337.16,2499.39,-114.14,-767.21,4.3,46.59,-5.33
2,22556,4,28.2,-1757.08,225.59,2623.9,-548.1,-593.87,-5.27,39.67,10.47
3,22572,0,0.0,,,,,,,,
4,22574,0,0.0,,,,,,,,
5,22576,0,0.0,,,,,,,,
6,22577,0,0.0,,,,,,,,
0,22581,4,282.47,-2109.99,902.34,-2264.4,181.27,1263.43,36.91,19.91,-14.75
1,22593,4,414.43,-2332.28,1280.88,2489.01,-796.51,-640.87,0.87,44.87,2.92
2,22605,4,-80.2,-2008.3,660.64,2223.51,-1416.63,-521.85,-5.94,34.28,20.12
3,22617,0,0.0,,,,,,,,
4,22619,0,0.0,,,,,,,,
5,22621,0,0.0,,,,,,,,
6,22622,0,0.0,,,,,,,,
0,22626,4,44.43,-2003.17,165.04,-1466.67,-404.66,1380.62,37.96,10.69,-16.17
1,22642,4,106.69,-1757.93,1681.88,1441.04,-1035.16,-403.44,0.13,40.71,12.37
2,22654,5,-362.67,-1720.21,898.68,1324.46,-1084.59,-361.94,-3.56,29.00,26.77
3,22666,0,0.0,,,,,,,,
4,22668,0,0.0,,,,,,,,
5,22670,0,0.0,,,,,,,,
6,22671,0,0.0,,,,,,,,
0,22675,4,-744.51,-1867.19,-236.21,-433.35,-108.03,1085.82,36.89,4.70,-17.25
1,22687,4,190.55,-1038.82,1926.03,428.47,-538.33,-345.46,0.77,38.72,15.71
2,22700,4,-275.39,-1276.86,950.07,-12.21,37.84,-9.16,-3.87,28.11,28.09
3,22715,0,0.0,,,,,,,,
4,22717,0,0.0,,,,,,,,
5,22718,0,0.0,,,,,,,,
6,22720,0,0.0,,,,,,,,
0,22723,5,-38.7,-1340.58,-36.87,397.34,73.85,-122.07,36.96,4.00,-15.67
1,22735,5,92.9,-1029.91,1022.46,-514.53,130.0,117.19,0.17,39.42,16.72
2,22748,4,-129.52,-1164.18,508.91,-819.7,302.73,136.11,-4.09,30.80,25.56
3,22760,0,0.0,,,,,,,,
4,22761,0,0.0,,,,,,,,
5,22763,0,0.0,,,,,,,,
6,22765,0,0.0,,,,,,,,
0,22768,4,388.79,-524.05,675.29,892.33,-72.63,-230.71,37.0,6.87,-16.43
1,22785,4,-22.46,-1959.59,-1260.86,-831.3,-389.4,308.23,1.6,40.88,14.50
2,22797,3,93.99,-812.38,-1573.85,-385.74,-488.28,83.62,-4.09,30.80,25.56
3,22807,0,0.0,,,,,,,,
4,22809,0,0.0,,,,,,,,
5,22811,0,0.0,,,,,,,,
6,22812,0,0.0,,,,,,,,
0,22816,4,-5.0,-1071.17,725.71,1582.03,-273.44,50.05,36.67,10.13,-17.99
1,22828,5,-23.93,-564.09,437.74,-1904.91,-306.4,541.38,4.08,43.85,6.32
2,22840,5,178.71,-1619.38,38.21,-815.43,-525.51,-17.09,-3.59,33.18,23.95
3,22856,0,0.0,,,,,,,,
4,22857,1,0.0,,,,,,,,
5,22859,0,0.0,,,,,,,,
6,22861,0,0.0,,,,,,,,
0,22864,6,463.01,-1166.38,857.42,435.18,31.74,-271.61,35.82,14.10,-17.33
1,22877,5,-24.05,-1198.73,118.41,-38.45,55.54,-330.81,3.77,45.54,3.75
2,22889,4,-237.67,-798.58,-149.66,-949.71,-354.0,-271.61,-2.09,33.74,22.88
3,22901,0,0.0,,,,,,,,
4,22902,0,0.0,,,,,,,,
5,22904,0,0.0,,,,,,,,
6,22906,0,0.0,,,,,,,,
0,22909,5,382.45,-658.81,728.15,183.72,-56.15,-79.96,35.46,15.52,-18.31
1,22926,4,-36.62,-942.75,195.07,-33.57,24.41,137.33,3.14,45.80,3.15
2,22937,5,-159.18,-953.37,-28.81,-652.47,302.73,6.71,-2.48,36.19,19.92
3,22949,0,0.0,,,,,,,,
4,22951,0,0.0,,,,,,,,
5,22952,0,0.0,,,,,,,,
6,22955,0,0.0,,,,,,,,
0,22958,5,62.74,-587.4,821.53,17.09,-322.88,-81.18,33.11,17.27,-17.59
1,22970,4,68.85,-1014.77,154.05,13.43,39.67,170.29,3.14,45.80,3.15
2,22981,4,9.16,-1002.2,4.03,-477.29,-226.44,-61.65,-2.25,37.30,17.20
3,22992,0,0.0,,,,,,,,
4,22999,0,0.0,,,,,,,,
5,23000,1,0.0,,,,,,,,
6,23002,0,0.0,,,,,,,,
0,23005,4,19.53,-556.15,857.42,56.76,-110.47,-5.49,33.11,17.27,-17.59
1,23016,5,41.14,-1074.22,153.81,32.96,12.82,-23.8,3.78,45.83,2.40
2,23028,4,-104.0,-1029.54,19.29,-385.13,-120.24,-98.27,-2.53,38.54,16.19
3,23041,0,0.0,,,,,,,,
4,23042,0,0.0,,,,,,,,
5,23044,0,0.0,,,,,,,,
6,23045,1,0.0,,,,,,,,
0,23049,4,104.13,-573.61,796.63,104.98,-46.39,45.17,31.98,17.82,-17.81
1,23061,4,-49.56,-940.55,180.66,3.66,72.63,-10.38,3.54,45.63,1.56
2,23076,5,-155.03,-948.49,45.29,-354.61,175.17,-42.72,-2.36,38.84,14.95
3,23089,0,0.0,,,,,,,,
4,23090,1,0.0,,,,,,,,
5,23092,0,0.0,,,,,,,,
6,23094,0,0.0,,,,,,,,
0,23097,5,80.69,-564.21,805.54,98.27,-50.66,-26.25,30.03,19.34,-18.53
1,23109,4,33.69,-966.31,174.32,-1.22,37.23,56.15,3.6,45.96,1.15
2,23121,5,-92.41,-981.81,118.29,-325.32,-1.83,-73.85,-3.89,39.47,11.80
3,23133,0,0.0,,,,,,,,
4,23135,0,0.0,,,,,,,,
5,23136,1,0.0,,,,,,,,
6,23142,0,0.0,,,,,,,,
0,23145,5,18.19,-588.75,785.16,93.38,-15.26,-6.1,29.2,20.90,-17.53
1,23157,4,45.53,-985.84,171.88,47.0,-1.83,-12.82,4.02,46.17,1.53
2,23170,4,-174.68,-976.07,123.17,-283.2,20.75,-98.27,-4.0,40.30,11.24
3,23181,0,0.0,,,,,,,,
4,23183,0,0.0,,,,,,,,
5,23185,0,0.0,,,,,,,,
6,23186,0,0.0,,,,,,,,
0,23190,4,49.32,-596.19,782.47,71.41,12.82,-17.09,29.09,21.12,-18.07
1,23201,5,48.58,-997.19,188.35,21.97,-32.96,-0.61,3.7,46.36,1.67
2,23214,4,-129.88,-1015.99,130.62,-284.42,28.69,-91.55,-3.61,39.94,10.55
3,23229,1,0.0,,,,,,,,
4,23231,0,0.0,,,,,,,,
5,23233,0,0.0,,,,,,,,
6,23234,1,0.0,,,,,,,,
0,23238,4,-29.42,-651.61,847.78,117.19,84.84,-14.65,28.76,20.80,-17.64
1,23250,5,2.56,-1000.61,176.03,84.84,-12.21,-75.07,3.53,46.80,1.37
2,23262,5,-214.36,-1069.82,133.42,-359.5,189.21,-90.94,-4.72,40.86,9.00
3,23274,0,0.0,,,,,,,,
4,23276,0,0.0,,,,,,,,
5,23277,0,0.0,,,,,,,,
6,23279,0,0.0,,,,,,,,
0,23282,5,108.76,-582.03,815.31,156.25,195.92,14.04,29.11,20.91,-17.80
1,23299,4,-19.29,-1063.48,176.64,-6.71,-7.93,-90.94,3.36,46.23,0.65
2,23311,4,-202.76,-1049.93,179.08,-416.26,211.18,-29.3,-5.48,41.91,6.63
3,23322,0,0.0,,,,,,,,
4,23324,0,0.0,,,,,,,,
5,23325,1,0.0,,,,,,,,
6,23327,0,0.0,,,,,,,,
0,23330,5,128.78,-577.64,807.13,236.21,64.7,-23.19,30.31,21.69,-17.74
1,23343,5,-15.26,-1251.71,201.29,-56.15,-17.09,-0.61,2.72,46.48,-0.06
2,23355,5,-261.96,-1164.43,208.62,-546.88,126.34,108.64,-5.46,42.86,4.87
3,23370,1,0.0,,,,,,,,
4,23372,0,0.0,,,,,,,,
5,23374,0,0.0,,,,,,,,
6,23375,1,0.0,,,,,,,,
0,23379,5,107.67,-614.62,850.83,556.64,3.66,-21.97,30.53,22.07,-18.36
1,23392,4,72.51,-1341.43,207.28,-405.88,-99.49,88.5,3.72,46.22,-0.13
2,23403,4,-144.41,-1246.46,202.39,-651.86,278.93,198.97,-5.46,42.86,4.87
3,23414,0,0.0,,,,,,,,
4,23416,0,0.0,,,,,,,,
5,23417,0,0.0,,,,,,,,
6,23419,0,0.195695,,,,,,,,
0,23424,4,47.85,-621.7,926.39,979.0,7.93,-26.86,31.02,23.95,-16.59
1,23439,5,99.12,-1685.55,159.91,-704.35,-145.26,-90.94,4.24,46.29,-2.81
2,23451,4,-213.26,-1682.13,51.76,-901.49,323.49,308.84,-4.9,43.13,1.95
3,23463,0,0.0,,,,,,,,
4,23464,0,0.0,,,,,,,,
5,23467,0,0.0,,,,,,,,
6,23469,0,0.0,,,,,,,,
0,23472,4,48.46,-593.38,1082.64,1954.96,454.1,51.88,31.65,28.63,-14.76
1,23484,4,-106.08,-2319.7,-70.92,-1666.26,29.3,-374.76,2.94,45.85,-7.93
2,23496,4,-77.76,-1926.51,-427.0,-1207.89,971.68,448.61,-3.89,42.97,-2.14
3,23512,1,0.0,,,,,,,,
4,23514,0,0.0,,,,,,,,
5,23516,0,0.0,,,,,,,,
6,23517,0,0.0,,,,,,,,
0,23521,4,428.59,-832.15,1103.64,3217.16,897.22,-83.01,33.0,35.35,-7.80
1,23533,3,-158.57,-2344.24,-42.48,-3349.61,506.59,-75.07,2.94,45.85,-7.93
2,23544,4,-248.78,-1647.46,-227.91,-1495.97,988.77,370.48,-0.88,42.65,-7.41
3,23556,0,0.0,,,,,,,,
4,23558,0,0.0,,,,,,,,
5,23560,0,0.0,,,,,,,,
6,23561,0,0.0,,,,,,,,
0,23565,4,848.51,-1448.97,1166.5,3118.9,335.69,-1318.36,33.19,43.79,2.54
1,23581,4,-681.27,-1466.67,-234.38,-3524.17,571.29,867.31,2.4,42.61,-20.04
2,23593,5,-168.33,-999.76,108.28,-916.14,427.25,285.03,1.61,41.14,-14.29
3,23605,0,0.0,,,,,,,,
4,23607,0,0.0,,,,,,,,
5,23609,0,0.0,,,,,,,,
6,23610,0,0.0,,,,,,,,
0,23614,4,-482.3,-687.62,918.58,1597.29,745.85,-922.85,28.91,47.79,12.21
1,23626,4,-255.86,1494.87,-615.48,-800.78,1524.66,-1315.31,6.81,34.85,-31.47
2,23639,4,-234.13,129.52,-375.24,-430.91,970.46,-126.95,3.82,39.84,-17.92
3,23654,0,0.0,,,,,,,,
4,23656,0,0.0,,,,,,,,
5,23657,1,0.0,,,,,,,,
6,23659,0,0.0,,,,,,,,
0,23663,4,203.37,202.27,578.61,-1459.35,-54.32,-1082.76,25.67,48.99,9.92
1,23674,6,151.61,-195.43,-553.34,1170.04,1098.02,330.2,9.3,31.32,-34.14
2,23687,5,225.22,-196.66,-125.24,598.75,200.2,-120.24,4.74,38.61,-18.25
3,23699,0,0.0,,,,,,,,
4,23701,0,0.0,,,,,,,,
5,23702,0,0.0,,,,,,,,
6,23704,0,0.0,,,,,,,,
0,23707,5,470.7,-234.99,508.42,-1395.87,286.25,134.89,23.62,47.95,5.85
1,23724,4,231.69,-431.4,-472.9,1781.62,-234.99,-491.94,13.04,35.68,-32.12
2,23736,5,248.05,-264.16,-98.88,1412.96,338.13,-551.76,4.25,40.42,-15.73
3,23748,0,0.0,,,,,,,,
4,23749,1,0.0,,,,,,,,
5,23751,0,0.0,,,,,,,,
6,23753,0,0.0,,,,,,,,
0,23756,4,91.19,-657.23,684.81,-1909.18,-31.74,1166.99,28.11,43.80,-0.93
1,23769,4,-540.89,-716.55,-284.55,2519.53,-310.67,-548.1,10.63,40.10,-25.16
2,23781,5,-155.27,-540.41,-98.88,1995.24,-238.04,-951.54,1.42,41.60,-9.58
3,23797,0,0.0,,,,,,,,
4,23798,0,0.0,,,,,,,,
5,23800,0,0.0,,,,,,,,
6,23802,0,0.0,,,,,,,,
0,23805,5,-83.37,-838.01,777.95,-2547.0,821.53,802.0,32.01,36.45,-7.21
1,23818,4,214.72,-1511.6,-34.91,2671.51,236.21,-1122.44,7.8,44.53,-16.75
2,23830,4,24.78,-1209.59,-67.5,2422.49,-252.08,-931.4,-3.45,41.99,-0.71
3,23842,0,0.0,,,,,,,,
4,23843,0,0.0,,,,,,,,
5,23845,0,0.0,,,,,,,,
6,23847,0,0.0,,,,,,,,
0,23851,4,29.3,-1124.02,958.62,-2336.43,631.71,933.84,36.11,27.42,-11.17
1,23867,4,453.0,-2022.09,464.11,2388.31,-100.1,-881.96,2.05,44.84,-5.46
2,23879,4,104.86,-1792.85,235.6,2501.22,-432.13,-777.59,-6.36,38.44,8.36
3,23890,0,0.0,,,,,,,,
4,23892,0,0.0,,,,,,,,
5,23895,0,0.0,,,,,,,,
6,23896,0,0.0,,,,,,,,
0,23900,4,360.11,-2137.21,951.9,-2108.15,350.34,1237.79,38.76,17.46,-12.60
1,23912,4,561.04,-1974.49,971.44,2424.93,-566.41,-722.66,-1.55,43.18,2.47
2,23924,4,335.45,-1984.01,503.78,2307.74,-708.01,-748.9,-8.72,33.65,17.40
3,23940,0,0.0,,,,,,,,
4,23942,0,0.0,,,,,,,,
5,23943,0,0.0,,,,,,,,
6,23945,0,0.0,,,,,,,,
0,23948,5,131.23,-1874.51,293.58,-1699.22,-120.85,1368.41,38.99,8.62,-13.29
1,23960,5,165.77,-1749.63,1520.26,1624.76,-917.97,-573.73,-2.91,39.38,9.90
2,23972,5,-325.44,-1710.45,728.39,1342.16,-1142.58,-599.98,-6.71,27.83,25.77
3,23985,0,0.0,,,,,,,,
4,23987,0,0.0,,,,,,,,
5,23989,0,0.0,,,,,,,,
6,23990,0,0.0,,,,,,,,
0,23994,4,-318.36,-1736.57,-59.69,-540.77,-103.76,1317.75,37.66,3.47,-12.96
1,24009,5,199.46,-1092.16,1773.93,671.39,-908.2,-224.61,-2.95,35.39,15.58
2,24022,5,-191.04,-1384.4,968.14,169.68,-408.33,-53.71,-5.99,25.60,26.67
3,24034,0,0.0,,,,,,,,
4,24036,0,0.0,,,,,,,,
5,24037,1,0.0,,,,,,,,
6,24039,0,0.0,,,,,,,,
0,24042,5,-457.89,-1227.42,-303.22,396.12,-125.73,-48.22,36.34,3.49,-12.12
1,24054,5,51.39,-1148.32,1386.6,-455.93,40.28,218.51,-1.39,35.10,16.59
2,24067,5,-26.0,-1275.76,646.0,-812.99,32.96,164.18,-5.82,27.66,25.71
3,24083,0,0.0,,,,,,,,
4,24084,0,0.0,,,,,,,,
5,24086,0,0.0,,,,,,,,
6,24088,0,0.0,,,,,,,,
0,24091,4,368.9,-448.85,752.08,1156.62,45.78,-521.24,37.02,7.24,-14.45
1,24103,5,-264.28,-1785.64,-901.0,-859.38,61.04,256.96,-1.29,36.87,13.44
2,24116,4,-186.16,-825.07,-1421.88,-426.03,-568.85,-72.63,-5.24,29.46,25.16
3,24128,0,0.0,,,,,,,,
4,24129,0,0.0,,,,,,,,
5,24131,0,0.0,,,,,,,,
6,24133,0,0.0,,,,,,,,
0,24136,3,517.94,-793.09,640.87,1423.95,-328.37,-194.09,37.02,7.24,-14.45
1,24147,5,217.9,-633.79,291.63,-1893.92,-155.64,737.3,1.49,40.53,6.97
2,24164,3,215.7,-1273.32,-19.17,-825.2,86.06,117.8,-5.24,29.46,25.16
3,24174,0,0.0,,,,,,,,
4,24176,0,0.0,,,,,,,,
5,24177,1,0.0,,,,,,,,
6,24179,0,0.0,,,,,,,,
0,24183,4,498.54,-1563.72,901.12,546.88,27.47,-360.72,36.36,11.83,-13.50
1,24195,5,-76.42,-718.02,316.04,-429.08,88.5,-123.29,1.89,42.08,4.49
2,24207,5,54.2,-1185.91,-233.4,-910.64,-297.85,-253.3,-4.54,31.34,22.72
3,24219,0,0.0,,,,,,,,
4,24224,1,0.0,,,,,,,,
5,24226,0,0.0,,,,,,,,
6,24228,0,0.0,,,,,,,,
0,24248,4,336.06,-607.79,759.28,83.01,1.83,-116.58,37.65,14.16,-13.34
1,24262,4,-123.41,-1025.76,164.79,16.48,60.42,45.78,1.04,42.18,2.44
2,24274,5,-307.13,-966.55,-16.24,-682.37,156.25,42.11,-4.14,34.12,18.97
3,24286,0,0.09775199999999999,,,,,,,,
4,24288,0,0.0,,,,,,,,
5,24290,0,0.0,,,,,,,,
6,24291,0,0.0,,,,,,,,
0,24295,4,183.96,-619.14,790.53,35.4,-353.39,-192.87,36.0,15.01,-12.74
1,24307,4,13.67,-965.94,181.15,80.57,76.9,256.35,1.78,42.59,3.63
2,24322,4,-35.64,-1038.09,-41.5,-427.86,-164.18,17.7,-3.74,35.45,16.47
3,24334,0,0.0,,,,,,,,
4,24335,0,0.0,,,,,,,,
5,24337,0,0.0,,,,,,,,
6,24338,1,0.0,,,,,,,,
0,24342,4,44.19,-576.05,839.84,-4.27,-278.93,-58.59,32.69,17.47,-13.73
1,24354,4,46.63,-1039.55,154.3,43.95,17.09,73.24,2.09,42.83,2.26
2,24366,4,-104.0,-1005.37,-9.28,-386.96,-256.96,-34.18,-3.74,35.45,16.47
3,24377,0,0.0,,,,,,,,
4,24379,0,0.0,,,,,,,,
5,24380,0,0.0,,,,,,,,
6,24386,0,0.0,,,,,,,,
0,24389,4,156.49,-548.46,769.41,59.81,-125.12,-15.87,30.66,19.13,-14.20
1,24401,5,-75.07,-952.76,173.46,-61.04,123.29,74.46,2.11,42.94,1.57
2,24414,4,-258.67,-924.32,53.96,-362.55,76.9,-17.09,-3.1,35.58,14.71
3,24425,0,0.0,,,,,,,,
4,24427,0,0.0,,,,,,,,
5,24428,1,0.0,,,,,,,,
6,24430,0,0.0,,,,,,,,
0,24434,3,47.12,-573.97,789.43,48.22,-172.12,-67.14,30.66,19.13,-14.20
1,24444,5,84.11,-989.75,168.7,81.79,-54.32,117.8,2.11,42.94,1.57
2,24468,4,-67.99,-998.66,77.15,-317.99,85.45,-51.88,-3.54,36.52,12.65
3,24479,0,0.0,,,,,,,,
4,24481,0,0.0,,,,,,,,
5,24482,1,0.0,,,,,,,,
6,24484,0,0.0,,,,,,,,
0,24487,6,30.27,-592.41,792.97,59.81,29.3,-37.84,29.17,20.94,-13.87
1,24500,5,11.35,-1003.66,185.42,111.69,8.54,-23.19,2.48,42.92,2.11
2,24512,3,-191.41,-1020.51,85.82,-335.69,85.45,-74.46,-3.54,36.52,12.65
3,24523,0,0.0,,,,,,,,
4,24524,0,0.0,,,,,,,,
5,24526,0,0.0,,,,,,,,
6,24527,1,0.0,,,,,,,,
0,24531,4,77.76,-580.93,794.56,83.62,100.1,-18.92,29.17,20.94,-13.87
1,24547,3,2.93,-974.49,178.83,98.27,-7.32,-33.57,2.48,42.92,2.11
2,24557,5,-144.29,-990.48,118.53,-374.76,272.83,-39.67,-3.98,37.34,11.21
3,24569,0,0.0,,,,,,,,
4,24570,1,0.0,,,,,,,,
5,24572,0,0.0,,,,,,,,
6,24574,0,0.0,,,,,,,,
0,24578,5,114.75,-573.61,791.14,96.44,76.9,-23.19,28.72,20.84,-13.72
1,24590,4,18.07,-975.1,181.52,-13.43,11.6,-15.26,3.13,42.66,1.03
2,24602,4,-160.52,-958.13,145.26,-402.83,133.67,-40.28,-4.65,38.15,9.39
3,24617,0,0.0,,,,,,,,
4,24620,0,0.0,,,,,,,,
5,24621,0,0.0,,,,,,,,
6,24623,0,0.0,,,,,,,,
0,24626,5,52.73,-593.87,797.97,148.93,-19.53,-28.08,28.42,21.22,-14.28
1,24638,5,40.04,-1061.89,183.47,-8.54,-21.36,31.13,2.69,43.20,2.00
2,24650,4,-158.33,-1011.35,216.67,-437.62,123.29,-24.41,-5.08,38.92,8.26
3,24662,1,0.0,,,,,,,,
4,24664,0,0.0,,,,,,,,
5,24666,0,0.0,,,,,,,,
6,24667,1,0.0,,,,,,,,
0,24671,4,104.49,-608.76,803.34,205.69,19.53,-51.27,28.69,21.85,-14.03
1,24687,4,-6.84,-1079.96,213.5,-66.53,22.58,78.74,2.82,42.82,1.98
2,24698,6,-165.77,-1063.6,263.55,-462.04,178.83,29.3,-5.26,39.27,6.21
3,24711,0,0.0,,,,,,,,
4,24712,1,0.0,,,,,,,,
5,24714,0,0.0,,,,,,,,
6,24716,0,0.0,,,,,,,,
0,24719,5,113.28,-617.43,837.28,385.74,-12.21,-67.14,28.45,22.68,-15.03
1,24731,4,68.73,-1321.66,235.84,-89.72,-30.52,159.3,2.83,42.96,0.95
2,24743,5,-168.09,-1187.01,261.11,-532.84,181.27,100.71,-4.96,39.53,4.22
3,24759,0,0.0,,,,,,,,
4,24761,0,0.0,,,,,,,,
5,24763,0,0.0,,,,,,,,
6,24764,0,0.09775199999999999,,,,,,,,
0,24768,4,29.66,-622.56,876.34,722.05,-19.53,-72.63,28.96,23.25,-14.75
1,24780,4,64.82,-1414.55,204.96,-428.47,-85.45,7.32,3.48,43.95,0.27
2,24792,5,-104.61,-1491.46,196.66,-689.09,316.16,151.37,-4.98,39.38,0.73
3,24804,0,0.0,,,,,,,,
4,24806,0,0.0,,,,,,,,
5,24807,0,0.0,,,,,,,,
6,24809,0,0.09775199999999999,,,,,,,,
0,24812,5,27.47,-629.27,1030.64,1489.26,36.01,29.91,29.61,25.39,-13.17
1,24824,5,-143.68,-2050.54,71.17,-1149.29,-100.1,-149.54,4.26,43.52,-3.56
2,24841,4,-271.97,-1858.15,-95.21,-995.48,332.64,272.22,-3.06,39.99,-1.33
3,24853,0,0.0,,,,,,,,
4,24854,0,0.0,,,,,,,,
5,24856,0,0.0,,,,,,,,
6,24858,0,0.0,,,,,,,,
0,24861,4,190.55,-664.06,1109.62,2568.36,318.6,-166.63,29.52,29.70,-9.73
1,24873,5,-670.17,-2361.21,-148.44,-2611.08,459.59,-164.79,4.47,42.42,-8.54
2,24886,4,-466.43,-1795.9,-443.73,-1372.68,1124.27,277.1,-1.92,39.14,-8.08
3,24898,0,0.0,,,,,,,,
4,24904,0,0.0,,,,,,,,
5,24906,0,0.0,,,,,,,,
6,24908,0,0.0,,,,,,,,
0,24911,4,543.09,-1366.21,1166.38,3356.32,912.48,-834.35,29.92,38.17,-2.50
1,24924,4,-148.8,-2233.64,-126.1,-3428.34,736.08,718.38,5.62,39.61,-20.94
2,24936,4,-240.48,-1140.5,-166.02,-1084.59,1206.05,117.19,1.06,38.17,-15.56
3,24948,0,0.0,,,,,,,,
4,24949,0,0.0,,,,,,,,
5,24951,0,0.0,,,,,,,,
6,24953,0,0.0,,,,,,,,
0,24956,5,410.16,-1584.11,854.98,2518.31,67.14,-1213.38,28.04,44.34,8.26
1,24969,4,-625.24,437.5,-611.57,-2796.02,1091.92,604.86,9.84,32.31,-31.67
2,24985,4,-259.77,-485.47,543.82,-808.72,577.39,278.93,3.13,36.40,-18.25
3,24997,0,0.0,,,,,,,,
4,24998,0,0.0,,,,,,,,
5,25000,0,0.0,,,,,,,,
6,25001,2,0.0,,,,,,,,
0,25006,4,1231.81,-206.67,842.65,-968.02,1440.43,-908.2,23.68,47.24,15.64
1,25018,4,1068.36,-1420.29,-677.73,1607.06,763.55,221.56,12.45,31.07,-33.28
2,25030,4,445.07,-83.01,-360.11,329.59,173.34,-37.84,4.43,36.01,-18.84
3,25041,1,0.0,,,,,,,,
4,25048,0,0.0,,,,,,,,
5,25049,1,0.0,,,,,,,,
6,25051,0,0.0,,,,,,,,
0,25054,5,378.78,-171.02,586.55,-854.49,112.92,256.35,19.81,50.37,11.82
1,25066,5,247.31,32.84,-546.02,1237.79,-296.02,-266.72,14.03,33.22,-32.85
2,25078,5,116.33,-105.35,13.18,989.99,53.1,-255.74,3.93,38.13,-16.69
3,25091,0,0.0,,,,,,,,
4,25092,1,0.0,,,,,,,,
5,25094,0,0.0,,,,,,,,
6,25096,0,0.0,,,,,,,,
0,25099,5,52.25,-464.11,647.09,-1787.72,-407.71,980.83,21.58,50.54,5.90
1,25111,4,-462.65,-607.06,-420.29,2322.39,-485.23,-307.62,12.22,39.11,-27.47
2,25127,5,-191.53,-374.39,-126.59,1867.68,-580.44,-668.95,2.03,41.22,-10.93
3,25140,0,0.0,,,,,,,,
4,25141,1,0.0,,,,,,,,
5,25143,0,0.0,,,,,,,,
6,25145,0,0.0,,,,,,,,
0,25148,5,-4.52,-856.45,664.43,-2372.44,233.15,914.92,26.27,44.25,-3.39
1,25160,4,-445.43,-968.14,-176.27,2763.67,36.62,-719.6,9.57,46.88,-18.23
2,25172,4,-236.69,-790.04,-62.01,2310.79,-377.81,-671.39,2.03,41.22,-10.93
3,25184,0,0.0,,,,,,,,
4,25185,0,0.0,,,,,,,,
5,25191,0,0.0,,,,,,,,
6,25192,1,0.0,,,,,,,,
0,25196,4,16.85,-912.6,692.75,-2656.25,767.21,693.36,29.32,35.24,-10.27
1,25208,4,267.46,-1837.52,284.67,2587.89,254.52,-1048.58,5.6,47.69,-6.45
2,25221,4,23.44,-1441.53,39.31,2592.16,-148.93,-698.24,-1.67,42.41,-1.03
3,25232,1,0.0,,,,,,,,
4,25234,0,0.0,,,,,,,,
5,25236,0,0.0,,,,,,,,
6,25237,0,0.0,,,,,,,,
0,25241,4,379.88,-1945.31,1094.36,-2125.24,573.12,1234.74,32.15,25.23,-14.15
1,25253,3,463.26,-1658.69,557.74,2439.58,-545.65,-1090.09,5.6,47.69,-6.45
2,25269,4,175.17,-1907.23,391.97,2548.22,-408.94,-734.86,-2.73,39.92,8.69
3,25280,0,0.0,,,,,,,,
4,25282,0,0.0,,,,,,,,
5,25284,0,0.0,,,,,,,,
6,25285,0,0.0,,,,,,,,
0,25289,4,287.96,-2004.52,639.4,-2202.15,102.54,1729.13,34.47,15.12,-15.70
1,25302,4,-32.84,-2098.02,1461.55,2246.7,-1010.13,-711.06,3.31,45.07,3.80
2,25314,4,-271.97,-1893.55,683.35,1878.05,-1612.55,-733.03,-4.6,34.91,18.76
3,25325,1,0.0,,,,,,,,
4,25327,0,0.0,,,,,,,,
5,25333,0,0.0,,,,,,,,
6,25334,0,0.0,,,,,,,,
0,25338,4,-191.89,-1512.21,-34.42,-1113.28,9.16,1499.02,33.94,6.05,-17.07
1,25351,4,473.02,-1368.04,1711.3,992.43,-1077.88,-823.97,2.88,41.56,12.45
2,25363,4,-308.72,-1637.94,1081.54,711.06,-328.98,-293.58,-1.46,29.00,26.14
3,25374,0,0.0,,,,,,,,
4,25376,0,0.0,,,,,,,,
5,25378,0,0.0,,,,,,,,
6,25379,0,0.0,,,,,,,,
0,25383,5,-712.65,-1654.17,-362.3,-273.44,-220.95,946.66,32.98,2.23,-16.60
1,25396,4,-165.04,-1472.41,1886.72,165.41,-393.07,58.59,2.77,39.39,16.70
2,25411,5,-430.3,-1392.46,745.12,-426.64,-29.91,103.76,-2.12,28.16,28.23
3,25423,0,0.0,,,,,,,,
4,25425,0,0.0,,,,,,,,
5,25426,1,0.0,,,,,,,,
6,25428,0,0.0,,,,,,,,
0,25432,5,-63.84,-821.17,72.88,1032.1,-204.47,-1057.13,32.36,2.54,-17.93
1,25444,5,344.36,-1336.18,-232.54,-1143.8,590.21,799.56,4.86,39.07,17.02
2,25456,5,224.24,-894.04,-767.7,-683.59,-34.18,267.33,-1.55,29.80,25.73
3,25468,0,0.0,,,,,,,,
4,25470,0,0.0,,,,,,,,
5,25476,0,0.0,,,,,,,,
6,25478,0,0.0,,,,,,,,
0,25481,5,614.26,-606.08,540.41,1226.81,-208.13,-416.26,32.86,7.95,-18.84
1,25493,5,248.9,-686.28,241.94,-1696.17,-156.25,586.55,6.34,42.19,10.88
2,25505,5,127.32,-1169.43,82.76,-950.32,-192.87,121.46,-0.5,32.12,25.13
3,25518,0,0.0,,,,,,,,
4,25519,0,0.0,,,,,,,,
5,25521,0,0.0,,,,,,,,
6,25523,0,0.0,,,,,,,,
0,25526,4,-245.12,-1051.64,1085.33,1013.18,-114.14,-310.06,32.19,12.13,-18.04
1,25538,5,114.99,-793.58,259.77,-982.06,220.95,107.42,7.81,45.86,5.02
2,25554,5,-55.42,-1405.88,225.59,-869.75,-306.4,-252.69,0.55,34.53,23.56
3,25567,0,0.0,,,,,,,,
4,25568,0,0.0,,,,,,,,
5,25570,0,0.0,,,,,,,,
6,25571,1,0.0,,,,,,,,
0,25575,4,239.01,-754.88,828.61,160.52,-154.42,-191.04,32.12,12.79,-18.55
1,25587,4,-28.81,-888.92,193.85,-107.42,56.15,65.31,7.23,46.24,3.21
2,25600,4,-448.49,-909.67,-99.0,-704.35,-461.43,-23.8,1.66,35.62,19.91
3,25611,0,0.0,,,,,,,,
4,25613,0,0.0,,,,,,,,
5,25614,1,0.0,,,,,,,,
6,25620,0,0.0,,,,,,,,
0,25623,5,233.76,-581.05,806.15,35.4,-221.56,-109.86,31.02,14.21,-18.38
1,25635,5,22.22,-975.22,162.11,-36.01,59.81,194.7,7.58,46.77,2.86
2,25648,4,208.37,-934.2,-22.58,-605.47,380.25,42.11,0.74,37.37,17.15
3,25659,0,0.0,,,,,,,,
4,25661,0,0.0,,,,,,,,
5,25663,0,0.0,,,,,,,,
6,25664,0,0.0,,,,,,,,
0,25668,4,50.66,-578.98,825.2,35.4,-202.03,-23.19,28.39,15.94,-18.82
1,25680,4,36.25,-996.22,161.01,-7.93,36.62,68.97,7.95,46.91,2.27
2,25696,4,-159.79,-998.66,-9.28,-423.58,-158.69,-47.0,1.39,38.20,14.89
3,25708,0,0.0,,,,,,,,
4,25709,0,0.0,,,,,,,,
5,25711,0,0.0,,,,,,,,
6,25712,1,0.0,,,,,,,,
0,25716,4,75.56,-553.71,833.13,59.2,-64.7,3.66,27.09,17.10,-18.66
1,25729,4,-25.27,-979.61,168.21,37.84,51.88,-12.82,7.89,47.07,2.09
2,25740,5,-260.86,-943.36,39.06,-388.18,101.93,-35.4,1.17,39.42,14.84
3,25752,0,0.0,,,,,,,,
4,25753,1,0.0,,,,,,,,
5,25755,0,0.0,,,,,,,,
6,25757,0,0.0,,,,,,,,
0,25760,3,76.66,-573.36,797.0,77.51,-78.12,-27.47,27.09,17.10,-18.66
1,25776,4,23.93,-1005.86,158.81,78.12,-17.7,29.91,8.08,46.57,1.37
2,25787,5,-38.57,-1010.01,35.16,-338.75,203.86,-35.4,0.98,39.92,12.87
3,25799,0,0.0,,,,,,,,
4,25801,0,0.0,,,,,,,,
5,25802,0,0.0,,,,,,,,
6,25804,0,0.0,,,,,,,,
0,25807,5,86.67,-567.63,789.92,83.01,-4.27,-43.95,25.77,18.08,-19.63
1,25820,4,-10.86,-987.3,174.8,37.23,65.92,14.65,8.13,46.84,1.72
2,25832,3,-194.46,-976.07,79.83,-341.8,25.63,-45.78,0.98,39.92,12.87
3,25846,0,0.0,,,,,,,,
4,25848,0,0.0,,,,,,,,
5,25849,0,0.0,,,,,,,,
6,25851,0,0.0,,,,,,,,
0,25854,6,104.0,-571.41,801.03,94.6,-36.62,-44.56,24.55,19.09,-19.29
1,25867,4,11.47,-1001.95,185.42,16.48,18.31,48.83,8.69,46.56,1.88
2,25879,4,-124.27,-973.75,147.46,-343.63,159.91,-29.91,0.79,40.48,11.46
3,25890,0,0.0,,,,,,,,
4,25892,0,0.0,,,,,,,,
5,25894,0,0.0,,,,,,,,
6,25895,0,0.0,,,,,,,,
0,25900,4,68.85,-592.16,784.67,103.15,-40.89,-22.58,24.1,20.36,-19.62
1,25915,4,28.08,-1010.74,176.88,37.84,-4.88,48.83,8.69,46.56,1.88
2,25926,4,-117.92,-980.47,154.3,-347.9,106.81,-36.62,-0.52,40.56,9.66
3,25937,1,0.0,,,,,,,,
4,25939,0,0.0,,,,,,,,
5,25942,0,0.0,,,,,,,,
6,25943,0,0.0,,,,,,,,
0,25947,4,55.18,-593.87,799.19,130.0,-7.93,-21.36,23.77,20.92,-19.30
1,25959,4,13.67,-1066.41,186.4,42.11,-4.88,20.75,8.33,46.95,0.79
2,25970,5,-205.32,-1045.04,160.89,-373.54,93.38,-25.02,0.39,40.36,7.86
3,25982,0,0.0,,,,,,,,
4,25988,0,0.0,,,,,,,,
5,25990,0,0.0,,,,,,,,
6,25991,1,0.0,,,,,,,,
0,25995,4,50.54,-592.41,811.52,214.23,7.93,-34.18,23.38,21.39,-18.80
1,26007,4,69.7,-1113.04,183.96,-39.67,0.61,42.11,8.57,47.18,0.67
2,26018,5,-177.61,-1080.57,170.65,-450.44,150.76,40.89,0.17,41.16,5.76
3,26031,0,0.0,,,,,,,,
4,26032,1,0.0,,,,,,,,
5,26034,0,0.0,,,,,,,,
6,26036,0,0.0,,,,,,,,
0,26039,5,97.05,-610.23,824.58,371.7,-11.6,-31.74,23.62,22.00,-18.70
1,26051,4,117.55,-1327.51,240.97,-53.71,-20.75,145.26,8.74,46.92,0.27
2,26067,5,-205.93,-1185.79,238.77,-583.5,197.14,159.3,0.35,41.20,4.53
3,26079,0,0.0,,,,,,,,
4,26081,0,0.0,,,,,,,,
5,26082,1,0.0,,,,,,,,
6,26084,0,0.29383000000000004,,,,,,,,
0,26088,4,45.65,-640.75,864.62,731.81,-171.51,-43.95,22.66,24.30,-19.27
1,26100,4,57.86,-1338.87,193.97,-437.01,-89.72,153.81,9.52,47.73,-0.04
2,26112,5,-103.52,-1289.31,209.72,-714.72,268.55,220.95,1.2,41.85,0.98
3,26124,0,0.0,,,,,,,,
4,26126,0,0.0,,,,,,,,
5,26127,0,0.0,,,,,,,,
6,26133,0,0.39215700000000003,,,,,,,,
0,26136,5,67.99,-679.93,963.99,1364.75,-170.29,-22.58,23.14,26.31,-16.71
1,26148,5,-16.97,-1840.21,119.38,-991.21,-100.1,38.45,10.83,46.90,-2.44
2,26161,5,-409.55,-1788.94,-13.67,-989.38,184.94,311.28,1.94,41.72,-2.14
3,26173,0,0.0,,,,,,,,
4,26174,0,0.0,,,,,,,,
5,26176,0,0.0,,,,,,,,
6,26178,0,0.09775199999999999,,,,,,,,
0,26181,5,244.75,-686.89,1176.27,2347.41,24.41,-286.87,22.71,30.91,-14.29
1,26193,6,-846.44,-2442.75,-144.65,-2028.2,371.09,177.61,11.6,45.98,-8.02
2,26210,4,-717.04,-1875.49,-506.84,-1409.3,952.15,280.76,3.83,41.05,-6.32
3,26222,0,0.0,,,,,,,,
4,26223,0,0.0,,,,,,,,
5,26225,0,0.0,,,,,,,,
6,26227,0,0.0,,,,,,,,
0,26230,4,278.44,-981.57,1174.07,3264.16,624.39,-1011.96,22.11,39.23,-7.96
1,26243,4,39.67,-2238.65,-16.11,-3484.5,992.43,888.67,13.44,43.23,-17.43
2,26255,4,-103.76,-1299.93,-95.34,-1380.62,1486.21,96.44,5.6,39.94,-11.40
3,26267,0,0.0,,,,,,,,
4,26268,0,0.0,,,,,,,,
5,26270,0,0.0,,,,,,,,
6,26275,0,0.0,,,,,,,,
0,26279,5,255.74,-1480.35,983.03,2526.25,-341.19,-1345.21,19.1,45.64,2.47
1,26292,4,-790.53,118.41,-765.38,-2459.72,908.81,966.19,18.69,36.06,-28.55
2,26304,4,-204.47,-524.17,502.56,-774.54,676.27,157.47,7.98,37.56,-16.82
3,26315,0,0.0,,,,,,,,
4,26317,0,0.0,,,,,,,,
5,26319,0,0.0,,,,,,,,
6,26320,0,0.0,,,,,,,,
0,26324,5,931.27,-507.2,1074.71,-504.15,1277.47,-793.46,15.39,47.16,8.03
1,26337,4,1420.78,-759.89,-765.38,802.61,105.59,-360.11,21.57,33.09,-30.92
2,26353,4,898.07,-167.11,-348.75,155.64,529.17,75.68,8.69,37.06,-16.58
3,26364,0,0.0,,,,,,,,
4,26366,0,0.0,,,,,,,,
5,26368,0,0.0,,,,,,,,
6,26370,0,0.0,,,,,,,,
0,26373,5,190.67,-7.81,621.58,-668.33,43.33,603.64,13.78,46.86,4.71
1,26385,5,27.95,-46.88,-565.19,1120.61,-264.89,-307.62,20.54,35.39,-28.08
2,26397,5,-5.0,-26.12,-106.93,1008.3,-142.82,-344.24,8.07,37.60,-13.73
3,26409,0,0.0,,,,,,,,
4,26411,0,0.0,,,,,,,,
5,26413,0,0.0,,,,,,,,
6,26415,0,0.0,,,,,,,,
0,26422,4,-231.2,-634.77,746.58,-1630.25,177.0,783.08,16.49,44.97,0.81
1,26434,4,-398.32,-408.08,-387.33,2142.94,-39.67,-773.32,18.58,40.11,-24.37
2,26446,4,-132.69,-364.62,-123.9,1665.65,-247.19,-681.76,5.71,40.63,-9.12
3,26458,1,0.0,,,,,,,,
4,26460,0,0.0,,,,,,,,
5,26462,0,0.0,,,,,,,,
6,26463,1,0.0,,,,,,,,
0,26467,4,-55.66,-589.84,592.53,-2351.68,629.27,538.33,19.57,39.76,-5.90
1,26479,4,-27.71,-985.6,-174.32,2472.53,250.85,-958.86,17.13,44.29,-15.97
2,26496,4,-75.07,-860.23,-22.71,2189.33,-256.96,-727.54,3.58,41.05,-0.66
3,26507,0,0.0,,,,,,,,
4,26509,0,0.0,,,,,,,,
5,26510,1,0.0,,,,,,,,
6,26512,0,0.0,,,,,,,,
0,26516,4,-20.51,-878.42,751.46,-2413.33,798.95,834.96,23.47,32.57,-11.83
1,26528,4,154.54,-1674.44,147.46,2499.39,57.37,-1154.17,13.16,46.51,-6.04
2,26540,4,5.25,-1286.5,-27.1,2473.75,-180.66,-797.73,3.58,41.05,-0.66
3,26551,0,0.0,,,,,,,,
4,26553,0,0.0,,,,,,,,
5,26554,0,0.0,,,,,,,,
6,26556,0,0.0,,,,,,,,
0,26563,5,177.25,-1574.22,1057.62,-2097.17,547.49,1089.48,27.11,24.01,-14.56
1,26575,4,322.39,-1783.45,542.97,2321.17,-302.73,-1016.85,13.16,46.51,-6.04
2,26587,5,158.94,-1880.86,353.03,2485.35,-200.81,-761.11,0.68,39.56,8.73
3,26599,0,0.0,,,,,,,,
4,26601,0,0.0,,,,,,,,
5,26602,0,0.0,,,,,,,,
6,26604,0,0.0,,,,,,,,
0,26607,5,214.48,-1909.67,705.81,-2158.2,243.53,1427.0,30.1,13.73,-17.10
1,26619,6,517.46,-2086.06,1130.25,2310.18,-777.59,-905.15,9.48,45.91,2.23
2,26636,5,20.51,-1891.97,522.22,1903.69,-1649.17,-704.96,-0.93,35.80,17.49
3,26648,0,0.0,,,,,,,,
4,26649,1,0.0,,,,,,,,
5,26651,0,0.0,,,,,,,,
6,26653,0,0.0,,,,,,,,
0,26656,5,103.03,-1734.38,167.72,-1410.52,-305.79,1582.03,29.66,6.36,-16.71
1,26669,5,275.76,-1503.91,1465.7,1423.34,-1309.81,-525.51,7.74,42.18,11.07
2,26681,5,-188.35,-1505.74,880.62,1002.2,-1058.35,-419.92,1.16,29.80,24.50
3,26693,0,0.0,,,,,,,,
4,26695,0,0.0,,,,,,,,
5,26696,0,0.0,,,,,,,,
6,26698,0,0.0,,,,,,,,
0,26705,6,-606.81,-1587.28,-299.8,-429.69,-236.21,1312.26,27.87,2.93,-16.96
1,26718,5,-30.88,-1384.16,1820.56,401.0,-781.25,-165.41,8.53,38.23,15.73
2,26730,5,-389.53,-1370.24,744.87,-213.62,-408.33,25.02,2.42,28.10,26.97
3,26742,0,0.0,,,,,,,,
4,26744,0,0.0,,,,,,,,
5,26745,0,0.0,,,,,,,,
6,26747,0,0.0,,,,,,,,
0,26750,6,-257.69,-1164.31,-57.86,638.43,-347.9,-543.21,27.62,3.41,-18.13
1,26763,5,-548.34,-2066.41,1158.81,-938.11,299.07,312.5,10.52,39.05,17.72
2,26779,4,-560.18,-964.48,217.16,-973.51,-64.09,140.38,3.93,29.11,26.61
3,26791,0,0.0,,,,,,,,
4,26792,0,0.0,,,,,,,,
5,26795,0,0.0,,,,,,,,
6,26797,0,0.0,,,,,,,,
0,26800,4,506.35,-36.01,1515.26,1021.12,-194.09,-1116.33,27.53,8.39,-19.09
1,26812,4,120.73,-1385.62,-137.7,-1958.01,233.15,447.39,10.75,41.04,14.00
2,26824,4,-186.04,-1584.96,258.91,-861.21,-8.54,88.5,4.98,31.08,24.96
3,26835,1,0.0,,,,,,,,
4,26838,0,0.0,,,,,,,,
5,26840,0,0.0,,,,,,,,
6,26841,0,0.0,,,,,,,,
0,26849,3,-774.17,-1379.64,1374.15,942.38,-297.24,-205.69,27.53,8.39,-19.09
1,26860,4,195.31,-829.71,267.94,-932.62,184.94,251.46,12.48,43.59,7.78
2,26871,5,228.52,-1350.83,295.04,-930.79,-209.35,16.48,5.55,33.11,22.53
3,26884,0,0.0,,,,,,,,
4,26886,0,0.0,,,,,,,,
5,26887,0,0.0,,,,,,,,
6,26889,0,0.0,,,,,,,,
0,26892,5,-46.63,-619.63,923.22,213.01,-104.98,-110.47,26.75,11.57,-18.25
1,26904,5,119.63,-920.53,170.17,-283.81,-7.93,75.68,12.62,44.84,4.50
2,26916,4,-587.52,-900.15,36.74,-758.06,-814.82,-21.97,6.9,34.77,18.97
3,26932,1,0.0,,,,,,,,
4,26934,0,0.0,,,,,,,,
5,26936,0,0.0,,,,,,,,
6,26937,1,0.0,,,,,,,,
0,26941,4,-9.64,-572.51,851.44,64.7,-102.54,-35.4,25.54,13.04,-17.99
1,26953,4,85.69,-1074.46,143.68,-4.27,-4.27,50.66,12.7,45.12,3.94
2,26964,6,55.18,-985.84,-58.59,-570.07,350.95,-89.11,5.96,36.22,16.76
3,26977,0,0.0,,,,,,,,
4,26978,1,0.0,,,,,,,,
5,26980,0,0.0,,,,,,,,
6,26982,0,0.0,,,,,,,,
0,26985,5,67.02,-593.02,833.86,86.06,9.16,10.99,25.24,14.32,-18.87
1,27001,4,43.7,-934.69,171.26,-12.21,-10.99,-46.39,12.22,45.15,2.10
2,27013,5,-94.6,-976.2,19.41,-381.47,68.97,-119.02,4.97,37.83,15.89
3,27025,0,0.0,,,,,,,,
4,27027,0,0.0,,,,,,,,
5,27028,0,0.0,,,,,,,,
6,27030,0,0.0,,,,,,,,
0,27033,5,52.12,-571.78,823.85,33.57,9.77,59.2,24.15,15.53,-19.18
1,27045,4,38.45,-1048.58,149.41,77.51,-31.13,-73.24,12.71,45.40,2.55
2,27058,4,-258.42,-1023.44,-1.1,-332.03,61.04,-87.89,4.48,38.35,14.40
3,27073,0,0.0,,,,,,,,
4,27075,0,0.0,,,,,,,,
5,27076,0,0.0,,,,,,,,
6,27078,0,0.0,,,,,,,,
0,27081,5,75.32,-579.35,806.4,41.5,23.19,-9.77,22.49,16.64,-18.58
1,27094,4,7.93,-948.61,172.24,84.23,-37.23,-26.86,12.16,45.15,2.82
2,27106,4,-91.55,-964.48,72.88,-250.85,186.77,-68.97,3.8,38.90,13.24
3,27117,0,0.0,,,,,,,,
4,27119,0,0.0,,,,,,,,
5,27121,0,0.0,,,,,,,,
6,27122,0,0.0,,,,,,,,
0,27126,4,35.4,-551.64,810.3,42.11,46.39,7.32,21.5,17.15,-17.75
1,27142,5,26.86,-987.18,154.66,75.07,-17.09,-81.18,11.69,45.72,3.19
2,27154,4,-143.31,-991.7,35.28,-246.58,75.07,-111.08,2.86,39.15,12.35
3,27165,0,0.0,,,,,,,,
4,27167,0,0.0,,,,,,,,
5,27169,0,0.0,,,,,,,,
6,27170,0,0.0,,,,,,,,
0,27174,5,93.14,-534.18,807.01,59.81,56.76,-9.16,22.24,17.14,-17.99
1,27186,5,-11.47,-1039.31,153.32,101.32,-37.23,-51.27,11.96,44.97,3.48
2,27198,4,-267.58,-999.51,95.7,-282.59,59.2,-62.26,2.86,39.15,12.35
3,27209,0,0.0,,,,,,,,
4,27210,1,0.0,,,,,,,,
5,27216,0,0.0,,,,,,,,
6,27218,0,0.0,,,,,,,,
0,27222,4,56.76,-550.29,806.03,56.76,78.12,-65.92,22.23,17.44,-18.27
1,27234,3,25.15,-1017.46,154.54,123.29,-47.0,-14.04,11.96,44.97,3.48
2,27244,5,-110.84,-1003.91,85.82,-333.25,162.35,-39.67,2.6,39.32,11.00
3,27256,0,0.0,,,,,,,,
4,27258,0,0.0,,,,,,,,
5,27259,0,0.0,,,,,,,,
6,27261,0,0.0,,,,,,,,
0,27265,5,96.8,-556.76,841.43,87.28,96.44,-72.63,21.81,18.98,-18.36
1,27277,4,-28.44,-1014.28,163.33,13.43,49.44,-13.43,11.89,45.41,2.34
2,27293,4,-222.53,-1002.08,148.56,-368.65,64.7,-17.09,1.92,40.47,9.85
3,27304,0,0.0,,,,,,,,
4,27307,0,0.0,,,,,,,,
5,27308,1,0.0,,,,,,,,
6,27310,0,0.0,,,,,,,,
0,27314,4,67.26,-554.81,814.82,143.43,29.3,-90.33,21.92,19.14,-17.63
1,27325,5,22.71,-1066.53,161.38,-1.22,-26.25,34.79,11.57,45.31,2.71
2,27337,4,-124.63,-1083.86,154.66,-418.09,178.22,17.09,2.11,41.08,8.58
3,27350,0,0.0,,,,,,,,
4,27351,0,0.0,,,,,,,,
5,27353,0,0.0,,,,,,,,
6,27355,0,0.0,,,,,,,,
0,27362,4,71.41,-578.25,844.48,288.09,92.16,-32.96,22.12,19.90,-17.72
1,27373,5,-8.91,-1158.45,179.81,-41.5,3.05,-25.02,11.72,45.50,1.84
2,27385,5,-253.42,-1094.73,177.37,-517.58,70.8,97.66,1.18,41.24,5.88
3,27398,0,0.0,,,,,,,,
4,27399,0,0.0,,,,,,,,
5,27401,0,0.0,,,,,,,,
6,27403,0,0.09775199999999999,,,,,,,,
0,27406,5,106.2,-602.66,862.43,463.26,29.91,-48.22,21.94,21.18,-18.42
1,27418,4,27.59,-1269.53,203.37,-378.42,-76.29,153.81,11.9,45.51,1.55
2,27430,5,-203.37,-1217.65,190.19,-651.25,261.84,248.41,1.21,41.27,4.52
3,27446,0,0.0,,,,,,,,
4,27448,0,0.0,,,,,,,,
5,27449,1,0.0,,,,,,,,
6,27451,0,0.29383000000000004,,,,,,,,
0,27455,4,75.81,-588.99,939.82,995.48,-201.42,-57.98,21.28,23.69,-16.70
1,27467,4,102.91,-1633.3,154.79,-688.48,-99.49,54.93,13.13,45.57,-0.61
2,27479,5,-100.83,-1554.81,160.64,-834.35,226.44,302.73,2.75,41.76,1.57
3,27491,0,0.0,,,,,,,,
4,27493,0,0.0,,,,,,,,
5,27494,0,0.0,,,,,,,,
6,27496,0,0.195695,,,,,,,,
0,27499,5,144.78,-627.81,1046.75,1813.35,-197.14,-5.49,21.28,28.19,-14.40
1,27515,6,-347.9,-2198.49,-8.18,-1527.1,133.06,23.8,13.22,45.62,-3.58
2,27528,5,-472.17,-1854.61,-335.82,-1156.62,568.85,385.13,4.74,40.77,-2.31
3,27540,0,0.0,,,,,,,,
4,27542,0,0.0,,,,,,,,
5,27543,0,0.0,,,,,,,,
6,27545,0,0.0,,,,,,,,
0,27548,5,328.37,-755.25,1041.99,3040.77,486.45,-513.92,20.37,36.15,-10.21
1,27560,6,-692.5,-2171.14,-115.11,-2821.04,817.26,286.87,13.55,44.65,-11.69
2,27573,5,-420.78,-1610.72,-205.32,-1394.65,1310.42,249.63,6.42,40.56,-7.73
3,27589,0,0.0,,,,,,,,
4,27591,0,0.0,,,,,,,,
5,27592,0,0.0,,,,,,,,
6,27594,0,0.0,,,,,,,,
0,27597,5,514.77,-1749.02,1069.09,2647.7,448.61,-1257.32,19.65,42.93,-0.79
1,27610,5,-361.69,-1412.35,-77.39,-3013.31,805.66,740.36,15.81,39.86,-23.58
2,27622,5,-136.72,-835.08,104.49,-1061.4,549.32,95.83,7.36,38.77,-12.34
3,27634,0,0.0,,,,,,,,
4,27636,0,0.0,,,,,,,,
5,27637,0,0.0,,,,,,,,
6,27639,0,0.0,,,,,,,,
0,27642,6,-781.98,-918.46,1092.04,1379.39,436.4,-1037.6,17.42,44.98,5.38
1,27659,5,-71.17,361.57,-705.2,-644.53,1565.55,-852.66,19.74,33.25,-29.98
2,27671,5,48.95,-78.37,-334.35,-338.13,1043.7,-112.3,9.44,37.04,-14.62
3,27683,0,0.0,,,,,,,,
4,27684,0,0.0,,,,,,,,
5,27686,0,0.0,,,,,,,,
6,27688,0,0.0,,,,,,,,
0,27692,4,337.52,148.32,635.86,-676.27,241.7,-621.95,14.45,45.43,5.02
1,27704,4,450.44,-363.53,-543.95,606.69,691.53,88.5,20.78,34.63,-27.28
2,27716,4,452.15,-166.75,-136.84,392.46,465.09,-54.32,9.61,36.89,-14.00
3,27731,0,0.0,,,,,,,,
4,27734,0,0.0,,,,,,,,
5,27735,1,0.0,,,,,,,,
6,27737,0,0.0,,,,,,,,
0,27741,4,266.24,-458.5,695.8,-775.76,69.58,575.56,15.25,45.06,1.61
1,27752,5,-124.39,33.94,-470.46,1341.55,-292.97,-365.6,20.36,37.13,-25.83
2,27764,5,120.61,-239.62,-76.05,1171.88,10.38,-578.0,9.28,38.85,-12.16
3,27777,0,0.0,,,,,,,,
4,27779,0,0.0,,,,,,,,
5,27780,0,0.0,,,,,,,,
6,27782,0,0.0,,,,,,,,
0,27785,5,-82.28,-475.59,664.92,-1895.75,349.73,781.25,18.4,40.89,-2.58
1,27801,4,-309.81,-860.35,-272.34,2343.14,58.59,-813.6,17.77,41.67,-20.08
2,27813,6,-165.04,-512.08,-144.53,1769.41,-354.0,-790.41,5.93,40.73,-6.65
3,27826,0,0.0,,,,,,,,
4,27827,1,0.0,,,,,,,,
5,27829,0,0.0,,,,,,,,
6,27831,0,0.0,,,,,,,,
0,27834,5,-35.16,-559.57,638.43,-2234.5,767.21,603.64,22.08,34.84,-7.98
1,27846,4,39.92,-1405.76,-46.14,2365.72,345.46,-1022.34,14.72,43.96,-11.11
2,27858,4,156.98,-1055.54,-78.37,2141.72,-154.42,-869.14,5.93,40.73,-6.65
3,27874,0,0.0,,,,,,,,
4,27875,0,0.0,,,,,,,,
5,27877,0,0.0,,,,,,,,
6,27879,0,0.0,,,,,,,,
0,27882,3,-37.11,-1170.53,1007.32,-1851.2,742.8,847.17,22.08,34.84,-7.98
1,27893,3,241.94,-1670.29,235.72,2058.11,-31.74,-1057.74,14.72,43.96,-11.11
2,27905,4,-92.65,-1507.93,205.08,2285.77,-271.0,-755.0,3.59,39.95,2.16
3,27917,0,0.0,,,,,,,,
4,27918,0,0.0,,,,,,,,
5,27920,0,0.0,,,,,,,,
6,27921,1,0.0,,,,,,,,
0,27925,4,60.55,-1709.35,933.72,-1977.54,711.67,1014.4,25.63,28.86,-11.60
1,27941,4,620.36,-1853.88,906.37,2129.52,-227.66,-1034.55,10.57,45.02,-5.40
2,27954,4,292.85,-1809.33,557.86,2176.51,-644.53,-726.93,0.7,38.16,8.64
3,27965,0,0.0,,,,,,,,
4,27967,0,0.0,,,,,,,,
5,27969,0,0.0,,,,,,,,
6,27970,0,0.0,,,,,,,,
0,27974,4,158.57,-1731.08,434.2,-1530.76,-52.49,1453.25,29.49,24.22,-14.45
1,27986,5,482.67,-1642.94,1178.34,1675.42,-1028.44,-635.38,7.47,42.65,1.64
2,27999,4,-39.67,-1683.72,598.51,1558.84,-1273.19,-579.22,-0.77,34.88,16.28
3,28014,0,0.0,,,,,,,,
4,28016,0,0.0,,,,,,,,
5,28018,0,0.0,,,,,,,,
6,28019,0,0.0,,,,,,,,
0,28023,4,-159.79,-1433.35,187.13,-914.31,-228.27,1614.38,33.56,17.77,-19.26
1,28036,4,458.5,-1270.02,1181.4,1053.47,-1315.31,-527.95,6.93,41.65,5.46
2,28048,4,-75.07,-1347.78,710.94,734.25,-942.99,-278.32,-0.5,33.54,21.37
3,28059,0,0.0,,,,,,,,
4,28061,0,0.0,,,,,,,,
5,28063,0,0.0,,,,,,,,
6,28064,0,0.0,,,,,,,,
0,28068,4,-383.42,-1413.33,-129.76,-159.91,-566.41,1040.04,34.86,8.69,-21.34
1,28085,4,-268.19,-2394.41,2026.0,-19.53,-839.23,0.0,7.5,43.69,7.75
2,28096,5,-534.42,-1378.66,749.39,-307.01,-664.06,-50.05,-0.04,33.79,24.55
3,28108,0,0.0,,,,,,,,
4,28110,0,0.0,,,,,,,,
5,28111,0,0.0,,,,,,,,
6,28113,0,0.0,,,,,,,,
0,28116,6,-415.41,-1559.81,-248.78,1164.55,-386.96,-432.13,33.02,4.49,-22.84
1,28130,4,246.58,-661.99,481.32,-1439.21,35.4,407.71,8.46,46.00,8.53
2,28141,5,-76.66,-1064.33,-1419.43,-702.51,-437.62,162.96,1.61,35.69,24.02
3,28157,0,0.0,,,,,,,,
4,28158,2,0.0,,,,,,,,
5,28161,0,0.0,,,,,,,,
6,28163,0,0.0,,,,,,,,
0,28166,5,539.31,-1068.24,635.74,1145.02,-241.7,-564.58,32.93,6.76,-23.39
1,28178,5,198.0,-650.02,332.15,-1260.99,3.05,415.04,9.94,48.41,3.48
2,28190,4,57.37,-1226.07,-154.66,-1282.35,252.08,125.73,3.39,38.17,22.24
3,28203,0,0.0,,,,,,,,
4,28204,0,0.0,,,,,,,,
5,28206,0,0.0,,,,,,,,
6,28207,1,0.0,,,,,,,,
0,28211,4,15.38,-1041.63,800.78,427.86,-8.54,-612.79,32.46,11.43,-23.05
1,28227,4,119.87,-635.38,240.23,-496.22,167.24,-92.77,10.74,49.66,-1.79
2,28239,4,-185.79,-764.16,-65.67,-906.37,-584.11,-217.9,2.54,41.47,19.52
3,28251,0,0.0,,,,,,,,
4,28253,0,0.0,,,,,,,,
5,28254,1,0.0,,,,,,,,
6,28256,0,0.0,,,,,,,,
0,28259,5,233.15,-656.13,763.06,114.14,-93.38,-180.66,32.42,12.33,-22.13
1,28271,5,7.2,-780.52,192.99,14.65,52.49,150.15,10.03,50.45,-2.98
2,28283,5,78.61,-985.11,13.67,-639.65,231.32,-117.8,3.92,41.98,15.91
3,28299,0,0.0,,,,,,,,
4,28301,0,0.0,,,,,,,,
5,28303,0,0.0,,,,,,,,
6,28304,0,0.0,,,,,,,,
0,28308,4,-3.66,-602.05,843.87,67.75,-6.1,-15.87,31.27,13.54,-23.05
1,28319,5,-4.03,-963.5,188.84,-18.31,91.55,-44.56,10.82,50.15,-2.93
2,28332,5,-184.2,-1014.04,13.06,-453.49,108.03,-167.85,2.28,43.68,13.84
3,28344,0,0.0,,,,,,,,
4,28345,1,0.0,,,,,,,,
5,28347,0,0.0,,,,,,,,
6,28349,0,0.0,,,,,,,,
0,28352,5,113.65,-621.7,793.95,24.41,31.74,50.66,30.57,14.48,-23.24
1,28368,4,18.07,-984.25,172.61,44.56,-12.21,-67.14,10.23,50.40,-3.32
2,28381,4,-216.8,-1000.98,35.64,-349.12,61.04,-102.54,0.22,44.67,11.85
3,28392,0,0.0,,,,,,,,
4,28394,0,0.0,,,,,,,,
5,28395,0,0.0,,,,,,,,
6,28397,0,0.0,,,,,,,,
0,28400,5,160.4,-561.52,795.04,28.69,-19.53,10.99,28.74,16.05,-21.84
1,28412,6,-42.85,-1064.58,170.65,98.27,19.53,20.14,10.34,50.74,-3.52
2,28425,4,-127.93,-1014.16,91.55,-310.67,158.69,-36.62,0.7,44.81,10.71
3,28437,0,0.0,,,,,,,,
4,28442,0,0.0,,,,,,,,
5,28444,0,0.0,,,,,,,,
6,28445,0,0.0,,,,,,,,
0,28449,4,96.8,-580.32,807.5,111.69,-18.31,-18.92,27.84,17.72,-22.84
1,28462,4,-11.47,-996.46,177.25,-2.44,29.3,20.14,9.77,50.04,-3.54
2,28473,5,-129.64,-951.66,130.86,-259.4,63.48,-43.95,0.1,45.08,8.94
3,28485,0,0.0,,,,,,,,
4,28486,0,0.0,,,,,,,,
5,28488,0,0.0,,,,,,,,
6,28490,0,0.0,,,,,,,,
0,28493,4,70.07,-588.99,787.48,120.24,-10.38,-22.58,27.44,17.96,-21.90
1,28506,4,34.91,-1000.24,178.1,72.63,-26.25,20.75,10.12,50.62,-4.54
2,28521,5,-109.25,-991.09,141.6,-241.7,27.47,-58.59,-0.2,46.02,7.53
3,28533,0,0.0,,,,,,,,
4,28534,1,0.0,,,,,,,,
5,28536,0,0.0,,,,,,,,
6,28538,0,0.0,,,,,,,,
0,28541,6,86.06,-587.4,794.07,124.51,42.11,-13.43,27.0,18.91,-22.64
1,28554,4,-7.81,-1034.67,187.74,48.22,8.54,-8.54,10.06,50.99,-3.28
2,28566,3,-208.62,-1013.92,129.88,-245.36,1.22,-57.37,-0.2,46.02,7.53
3,28576,0,0.0,,,,,,,,
4,28578,0,0.0,,,,,,,,
5,28579,1,0.0,,,,,,,,
6,28581,0,0.0,,,,,,,,
0,28589,5,74.1,-602.66,772.95,152.59,22.58,-18.31,27.14,19.58,-22.44
1,28601,3,26.73,-983.15,192.26,25.63,-37.84,18.31,10.06,50.99,-3.28
2,28612,4,-191.28,-977.17,147.22,-289.31,49.44,-33.57,-0.06,45.12,6.86
3,28623,0,0.0,,,,,,,,
4,28625,0,0.0,,,,,,,,
5,28627,0,0.0,,,,,,,,
6,28628,0,0.0,,,,,,,,
0,28633,4,55.54,-620.73,766.6,142.82,33.57,-34.18,27.16,19.78,-22.50
1,28644,5,56.88,-989.62,203.49,-43.33,-66.53,30.52,10.36,50.67,-3.58
2,28656,5,-179.81,-1036.38,187.5,-334.47,104.98,-23.19,-0.18,45.92,5.96
3,28673,0,0.0,,,,,,,,
4,28674,0,0.0,,,,,,,,
5,28676,0,0.0,,,,,,,,
6,28678,0,0.0,,,,,,,,
0,28681,4,96.31,-615.36,791.99,214.84,19.53,-40.89,27.22,20.95,-21.30
1,28693,4,78.86,-1094.24,210.21,-95.21,-28.08,68.97,9.78,50.88,-4.98
2,28705,4,-99.12,-1031.49,226.68,-398.56,176.39,-0.61,0.17,45.83,4.17
3,28717,0,0.0,,,,,,,,
4,28719,0,0.0,,,,,,,,
5,28720,0,0.0,,,,,,,,
6,28722,0,0.195695,,,,,,,,
0,28726,4,38.21,-632.81,781.37,340.58,25.63,13.43,27.37,21.84,-22.02
1,28741,5,43.33,-1093.26,229.86,-154.42,-98.88,-64.7,10.71,50.88,-5.79
2,28753,5,-182.86,-1053.47,255.37,-473.63,108.03,87.28,-0.72,46.36,2.98
3,28766,0,0.0,,,,,,,,
4,28767,0,0.0,,,,,,,,
5,28769,0,0.0,,,,,,,,
6,28771,0,0.49067700000000003,,,,,,,,
0,28774,4,157.23,-657.84,794.56,495.0,-28.69,10.99,27.58,23.49,-21.74
1,28786,4,-90.45,-1218.51,250.61,-245.36,-93.38,-37.84,10.12,51.16,-5.83
2,28798,5,-289.79,-1152.22,251.95,-567.63,192.26,168.46,0.49,45.84,1.12
3,28814,0,0.0,,,,,,,,
